id	word	nonce_word	lfpm10r	resp.rt	resp.keys	correct	trial_number
BB	rücsök	FALSE	-1.879	2.616000000000014	left	FALSE	3
BB	koenzim	FALSE	0.003	1.7839999999999918	right	TRUE	29
BB	lakotthely	FALSE	-2.472	4.545000000000016	right	TRUE	64
BB	anorák	FALSE	-1.335	1.149000000000001	right	TRUE	225
BB	farkasbab	FALSE	-2.154	8.310000000000002	left	FALSE	48
BB	konverzál	FALSE	-2.967	6.908999999999992	left	FALSE	125
BB	árstop	FALSE	-2.365	0.8110000000000355	right	TRUE	180
BB	neoprén	FALSE	-0.057	0.8490000000000464	right	TRUE	192
BB	kúpol	FALSE	-1.906	11.307000000000016	left	FALSE	77
BB	lazúroz	FALSE	-3.569	1.280999999999949	right	TRUE	132
BB	donhuán	FALSE	-2.472	2.676000000000045	right	TRUE	184
BB	bizmut	FALSE	-0.988	1.26400000000001	right	TRUE	189
BB	glosszáz	FALSE	-3.569	2.7680000000000007	right	TRUE	41
BB	magmatit	FALSE	-2.666	6.15300000000002	left	FALSE	149
BB	libling	FALSE	-1.946	1.365000000000009	right	TRUE	179
BB	viszonvád	FALSE	-2.163	3.84800000000007	right	TRUE	197
BB	kollapszus	FALSE	-1.065	3.766000000000019	right	TRUE	58
BB	hübrisz	FALSE	-0.863	2.074000000000069	left	FALSE	194
BB	adszorbens	FALSE	-1.303	2.3460000000000036	right	TRUE	200
BB	ifjít	FALSE	-3.092	2.951000000000022	right	TRUE	227
BB	truccol	FALSE	-2.694	2.5579999999999927	left	FALSE	1
BB	mimézis	FALSE	-1.054	1.4949999999999477	right	TRUE	100
BB	bajadér	FALSE	-1.417	1.781000000000006	right	TRUE	115
BB	kvéker	FALSE	-1.672	2.4009999999999536	left	FALSE	239
BB	petél	FALSE	-3.092	5.629000000000019	left	FALSE	75
BB	rekvizit	FALSE	-1.973	1.1159999999999854	right	TRUE	128
BB	kontrapunkt	FALSE	-1.743	7.122999999999934	right	TRUE	177
BB	orront	FALSE	-2.057	1.94500000000005	right	TRUE	206
BB	aggófű	FALSE	-1.365	6.895000000000039	left	FALSE	53
BB	infimum	FALSE	-2.339	2.6119999999999663	left	FALSE	229
BB	kurzivál	FALSE	-3.092	4.549000000000092	right	TRUE	231
BB	döföl	FALSE	-2.724	0.6609999999999445	right	TRUE	243
BB	piláf	FALSE	-1.262	2.9470000000000027	right	TRUE	10
BB	móringol	FALSE	-2.967	3.430999999999983	left	FALSE	109
BB	lalláz	FALSE	-3.268	3.2609999999999673	right	TRUE	150
BB	cugehőr	FALSE	-2.916	10.695999999999913	left	FALSE	185
BB	diffamál	FALSE	-3.393	2.3870000000000573	left	FALSE	138
BB	krakéler	FALSE	-1.411	1.8780000000000427	right	TRUE	139
BB	diviz	FALSE	-2.569	3.699000000000069	left	FALSE	213
BB	vabank	FALSE	-2.247	1.5649999999999409	right	TRUE	242
BB	vonzum	TRUE	NA	2.281000000000006	left	TRUE	2
BB	hidroxid	FALSE	-0.536	2.231000000000023	right	TRUE	4
BB	kocskesi	TRUE	NA	2.429000000000002	left	TRUE	5
BB	skubizik	FALSE	-3.171	1.1510000000000105	right	TRUE	6
BB	vároló	TRUE	NA	3.1980000000000075	left	TRUE	7
BB	selypít	FALSE	-1.452	3.031000000000006	right	TRUE	8
BB	arzénsav	FALSE	-2.408	1.961999999999989	right	TRUE	9
BB	csapattest	FALSE	-1.301	2.078000000000003	right	TRUE	11
BB	viszkóz	FALSE	-0.61	3.812999999999988	right	TRUE	12
BB	rejtőzik	FALSE	0.612	1.413000000000011	right	TRUE	13
BB	kondenzcsík	FALSE	-1.009	1.8959999999999864	right	TRUE	14
BB	glükóz	FALSE	0.41	1.0979999999999848	right	TRUE	15
BB	tröshet	TRUE	NA	3.117000000000018	left	TRUE	16
BB	mihálóz	TRUE	NA	1.602000000000004	left	TRUE	17
BB	norvend	TRUE	NA	1.266999999999996	left	TRUE	18
BB	ószeven	TRUE	NA	2.6980000000000075	left	TRUE	19
BB	tartalom	FALSE	1.71	0.8170000000000073	right	TRUE	20
BB	vetézmés	TRUE	NA	4.727000000000004	left	TRUE	21
BB	század	FALSE	2.036	0.9799999999999898	right	TRUE	22
BB	égitest	FALSE	0.434	0.8620000000000232	right	TRUE	23
BB	látszik	FALSE	2.055	0.6780000000000257	right	TRUE	24
BB	tököl	FALSE	-1.12	0.7009999999999934	right	TRUE	25
BB	tangózik	FALSE	-1.78	1.1830000000000211	right	TRUE	26
BB	újgazdag	FALSE	-0.337	0.9150000000000204	right	TRUE	27
BB	űrlap	FALSE	1.015	0.6639999999999873	right	TRUE	28
BB	szokik	FALSE	-0.316	1.1030000000000086	right	TRUE	30
BB	fertilis	FALSE	-1.185	1.7469999999999857	right	TRUE	31
BB	kitin	FALSE	-0.946	0.7139999999999986	right	TRUE	32
BB	novagár	TRUE	NA	3.6440000000000055	left	TRUE	33
BB	cséltás	TRUE	NA	2.295000000000016	left	TRUE	34
BB	puritán	FALSE	0.459	0.9509999999999934	right	TRUE	35
BB	dádá	FALSE	-1.428	2.561000000000007	right	TRUE	36
BB	mítosz	FALSE	0.619	0.7660000000000196	right	TRUE	37
BB	lélek	FALSE	1.694	0.8299999999999841	right	TRUE	38
BB	dolog	FALSE	2.387	0.6329999999999814	right	TRUE	39
BB	hajlik	FALSE	0.575	0.6470000000000198	right	TRUE	40
BB	csüggedez	FALSE	-2.756	3.810999999999978	right	TRUE	42
BB	pereg	FALSE	0.061	2.061000000000007	right	TRUE	43
BB	aurult	TRUE	NA	2.7889999999999873	left	TRUE	44
BB	karnogó	TRUE	NA	1.8969999999999911	left	TRUE	45
BB	hitódó	TRUE	NA	3.6959999999999695	left	TRUE	46
BB	rozintem	TRUE	NA	2.409999999999968	left	TRUE	47
BB	nagyszámú	FALSE	0.902	0.8290000000000077	right	TRUE	49
BB	dolgozik	FALSE	1.948	0.5790000000000077	right	TRUE	50
BB	gyapot	FALSE	-0.198	0.6159999999999854	right	TRUE	51
BB	tropikus	FALSE	-0.563	2.9430000000000405	right	TRUE	52
BB	tábornagy	FALSE	-0.321	0.8269999999999982	right	TRUE	54
BB	ellenfél	FALSE	1.362	0.6349999999999909	right	TRUE	55
BB	bolgár	FALSE	1.03	0.7490000000000236	right	TRUE	56
BB	nimbus	FALSE	-2.756	1.7130000000000225	right	TRUE	57
BB	hidegház	FALSE	-2.509	3.26400000000001	right	TRUE	59
BB	kelől	TRUE	NA	2.825999999999965	left	TRUE	60
BB	törődik	FALSE	0.7	0.9329999999999928	right	TRUE	61
BB	piktogram	FALSE	-0.278	1.1680000000000064	right	TRUE	62
BB	darab	FALSE	2.044	0.8079999999999927	right	TRUE	63
BB	kurtít	FALSE	-2.237	4.343000000000018	right	TRUE	65
BB	rámáz	FALSE	-3.171	1.2110000000000127	right	TRUE	66
BB	bárányfark	FALSE	-3.092	8.073999999999955	right	TRUE	67
BB	gyülemlik	FALSE	-1.145	1.4329999999999927	right	TRUE	68
BB	derít	FALSE	0.012	0.8140000000000214	right	TRUE	69
BB	bélyeg	FALSE	0.274	1.0190000000000057	right	TRUE	70
BB	lágyék	FALSE	-0.685	0.8340000000000032	right	TRUE	71
BB	jármű	FALSE	1.595	2.382000000000005	right	TRUE	72
BB	fürkész	FALSE	-0.829	0.7819999999999823	right	TRUE	73
BB	végbél	FALSE	0.305	0.9669999999999844	right	TRUE	74
BB	templomoz	FALSE	-3.092	2.157000000000039	right	TRUE	76
BB	storítő	TRUE	NA	4.127999999999986	left	TRUE	78
BB	tortya	TRUE	NA	2.1959999999999695	left	TRUE	79
BB	gyűjtemény	FALSE	1.112	0.9850000000000136	right	TRUE	80
BB	nyersarany	FALSE	-2.548	2.466000000000008	right	TRUE	81
BB	konyrúd	TRUE	NA	2.745999999999981	left	TRUE	82
BB	törköly	FALSE	-0.572	1.009999999999991	right	TRUE	83
BB	karakter	FALSE	1.43	0.7120000000000459	right	TRUE	84
BB	régész	FALSE	0.538	1.1949999999999932	right	TRUE	85
BB	referál	FALSE	-0.432	0.9950000000000044	right	TRUE	86
BB	alfél	FALSE	-2.365	5.961000000000013	right	TRUE	87
BB	genom	FALSE	0.016	1.1480000000000246	right	TRUE	88
BB	hider	TRUE	NA	5.259999999999991	left	TRUE	89
BB	szilikát	FALSE	-0.363	1.2779999999999632	right	TRUE	90
BB	kötődik	FALSE	1.137	0.9150000000000204	right	TRUE	91
BB	rojtoz	TRUE	NA	1.149000000000001	right	FALSE	92
BB	alkalom	FALSE	1.587	0.7139999999999986	right	TRUE	93
BB	keresztény	FALSE	1.817	0.7450000000000045	right	TRUE	94
BB	csenyei	TRUE	NA	7.1059999999999945	right	FALSE	95
BB	kunyai	TRUE	NA	3.747000000000014	left	TRUE	96
BB	ernyak	TRUE	NA	2.605000000000018	left	TRUE	97
BB	lukaszt	FALSE	-2.591	2.213999999999998	right	TRUE	98
BB	abszint	FALSE	-0.659	1.009999999999991	right	TRUE	99
BB	nárcisz	FALSE	-0.25	0.6640000000000441	right	TRUE	101
BB	forgórész	FALSE	-0.244	1.0639999999999643	right	TRUE	102
BB	közhely	FALSE	0.426	0.7000000000000455	right	TRUE	103
BB	csengettyű	FALSE	-0.622	1.0610000000000357	right	TRUE	104
BB	ómagyar	FALSE	-0.441	1.0620000000000118	right	TRUE	105
BB	biliárd	FALSE	-0.011	1.2909999999999968	right	TRUE	106
BB	pohár	FALSE	1.388	0.6340000000000146	right	TRUE	107
BB	turné	FALSE	0.819	0.5629999999999882	right	TRUE	108
BB	takorák	TRUE	NA	2.194000000000017	left	TRUE	110
BB	igény	FALSE	1.885	0.7959999999999923	right	TRUE	111
BB	hatalom	FALSE	1.658	0.8470000000000368	right	TRUE	112
BB	eszköz	FALSE	1.983	0.59699999999998	right	TRUE	113
BB	extrém	FALSE	1.384	0.6200000000000045	right	TRUE	114
BB	csapdáz	FALSE	-3.268	3.4820000000000277	right	TRUE	116
BB	jegedény	TRUE	NA	3.850999999999999	left	TRUE	117
BB	gazdag	FALSE	1.977	0.9029999999999632	right	TRUE	118
BB	vésségi	TRUE	NA	4.559000000000026	left	TRUE	119
BB	retta	TRUE	NA	1.396000000000015	left	TRUE	120
BB	horizont	FALSE	0.296	0.7110000000000127	right	TRUE	121
BB	népszerű	FALSE	1.814	0.6140000000000327	right	TRUE	122
BB	úszamos	TRUE	NA	5.5260000000000105	left	TRUE	123
BB	irány	FALSE	1.373	0.7620000000000005	right	TRUE	124
BB	örmény	FALSE	0.795	1.0089999999999577	right	TRUE	126
BB	szalicil	FALSE	-0.79	2.132000000000005	right	TRUE	127
BB	tömzsa	TRUE	NA	1.579999999999984	left	TRUE	129
BB	kanalaz	FALSE	-1.325	0.997000000000014	right	TRUE	130
BB	árus	FALSE	-0.422	0.8439999999999941	right	TRUE	131
BB	káder	FALSE	-0.593	1.2060000000000173	right	TRUE	133
BB	komplex	FALSE	1.745	0.9909999999999854	right	TRUE	134
BB	kettősfém	FALSE	-2.756	1.0150000000000432	right	TRUE	135
BB	szelégül	TRUE	NA	4.291999999999973	left	TRUE	136
BB	könnyelmű	FALSE	0.019	1.0840000000000032	right	TRUE	137
BB	tenger	FALSE	1.456	0.8299999999999272	right	TRUE	140
BB	testnedv	FALSE	-0.969	0.9329999999999928	right	TRUE	141
BB	rövid	FALSE	2.339	0.6470000000000482	right	TRUE	142
BB	extuál	TRUE	NA	2.8339999999999463	left	TRUE	143
BB	ború	FALSE	-0.485	0.5800000000000409	right	TRUE	144
BB	profit	FALSE	0.862	0.7819999999999254	right	TRUE	145
BB	tajtásos	TRUE	NA	4.2000000000000455	left	TRUE	146
BB	aragas	TRUE	NA	5.7730000000000246	left	TRUE	147
BB	szabotró	TRUE	NA	4.486999999999966	left	TRUE	148
BB	időszak	FALSE	1.939	0.6140000000000327	right	TRUE	151
BB	nukleon	FALSE	-1.266	1.0919999999999843	right	TRUE	152
BB	parkkói	TRUE	NA	4.874000000000024	left	TRUE	153
BB	komoly	FALSE	2.29	0.8520000000000891	right	TRUE	154
BB	elegy	FALSE	-1.266	0.7599999999999909	right	TRUE	155
BB	vényegő	TRUE	NA	5.1310000000000855	left	TRUE	156
BB	türemlik	FALSE	-2.393	4.50100000000009	right	TRUE	157
BB	lemesség	TRUE	NA	4.752000000000066	left	TRUE	158
BB	egant	TRUE	NA	2.4739999999999327	left	TRUE	159
BB	komál	FALSE	-2.031	0.95900000000006	right	TRUE	160
BB	csatázik	FALSE	-0.489	0.8500000000000227	right	TRUE	161
BB	iszlám	FALSE	1.246	0.8150000000000546	right	TRUE	162
BB	grafikon	FALSE	0.471	0.65199999999993	right	TRUE	163
BB	megpadék	TRUE	NA	4.544999999999959	left	TRUE	164
BB	délceg	FALSE	-0.228	0.8319999999999936	right	TRUE	165
BB	áradmány	FALSE	-2.64	11.351	right	TRUE	166
BB	olaj	FALSE	1.54	0.6999999999999318	right	TRUE	167
BB	zomogyi	TRUE	NA	3.441000000000031	left	TRUE	168
BB	rakódik	FALSE	0.094	0.73599999999999	right	TRUE	169
BB	szempont	FALSE	1.61	0.5639999999999645	right	TRUE	170
BB	barát	FALSE	1.221	0.6009999999999991	right	TRUE	171
BB	kárpit	FALSE	0.194	0.7809999999999491	right	TRUE	172
BB	változik	FALSE	1.765	1.0650000000000546	right	TRUE	173
BB	méhezter	TRUE	NA	4.280999999999949	left	TRUE	174
BB	kurzív	FALSE	-0.736	0.7459999999999809	right	TRUE	175
BB	cianid	FALSE	-0.711	0.9429999999999836	right	TRUE	176
BB	kulcscsont	FALSE	-0.536	0.8980000000000246	right	TRUE	178
BB	püffeszt	FALSE	-3.87	1.8940000000000057	right	TRUE	181
BB	abeti	TRUE	NA	2.3110000000000355	left	TRUE	182
BB	kalcium	FALSE	1.004	0.77800000000002	right	TRUE	183
BB	ion	FALSE	0.155	0.8990000000000009	right	TRUE	186
BB	ausztrál	FALSE	1.198	0.8129999999999882	right	TRUE	187
BB	balközép	FALSE	-0.179	0.7479999999999336	right	TRUE	188
BB	sziszeg	FALSE	-0.745	0.6949999999999363	right	TRUE	190
BB	csontdarab	FALSE	-1.165	1.245999999999981	right	TRUE	191
BB	lublika	TRUE	NA	3.784999999999968	left	TRUE	193
BB	csüggeszt	FALSE	-1.753	1.2110000000000127	right	TRUE	195
BB	százalék	FALSE	1.899	0.6609999999999445	right	TRUE	196
BB	forrpont	FALSE	-1.542	0.8199999999999363	right	TRUE	198
BB	pauzál	FALSE	-3.092	2.2100000000000364	right	TRUE	199
BB	beton	FALSE	1.056	0.7169999999999845	right	TRUE	201
BB	bajuszfű	FALSE	-2.967	4.27699999999993	right	TRUE	202
BB	bacon	FALSE	0.189	3.9459999999999127	right	TRUE	203
BB	mellényzseb	FALSE	-1.973	1.01400000000001	right	TRUE	204
BB	hálózsák	FALSE	-0.037	1.032000000000039	right	TRUE	205
BB	rotor	FALSE	-0.054	0.7609999999999673	right	TRUE	207
BB	nagybeteg	FALSE	-0.276	1.6599999999999682	right	TRUE	208
BB	kencéz	FALSE	-3.569	1.4120000000000346	right	TRUE	209
BB	diktátor	FALSE	0.599	0.8310000000000173	right	TRUE	210
BB	retálhit	TRUE	NA	3.908999999999992	left	TRUE	211
BB	fajansz	FALSE	-0.829	1.26299999999992	right	TRUE	212
BB	töredék	FALSE	0.316	0.8169999999998936	right	TRUE	214
BB	gyásos	TRUE	NA	2.2450000000000045	left	TRUE	215
BB	gerencsér	FALSE	-1.63	4.038999999999987	right	TRUE	216
BB	szimboló	TRUE	NA	9.826000000000022	left	TRUE	217
BB	tarol	FALSE	-0.219	0.8799999999999955	right	TRUE	218
BB	kosi	TRUE	NA	4.975999999999999	left	TRUE	219
BB	heveny	FALSE	0.516	0.7789999999999964	right	TRUE	220
BB	lejmol	FALSE	-2.031	0.8949999999999818	right	TRUE	221
BB	lépték	FALSE	0.16	0.7789999999999964	right	TRUE	222
BB	szegény	FALSE	1.681	0.6960000000000264	right	TRUE	223
BB	kislány	FALSE	1.415	0.4779999999999518	right	TRUE	224
BB	dohorpák	TRUE	NA	5.165000000000077	left	TRUE	226
BB	kilukát	TRUE	NA	3.3780000000000427	left	TRUE	228
BB	svábtök	FALSE	-3.87	3.6920000000000073	right	TRUE	230
BB	színpad	FALSE	1.058	0.6699999999999591	right	TRUE	232
BB	transzplantál	FALSE	-3.092	1.36099999999999	right	TRUE	233
BB	törékeny	FALSE	0.894	1.3109999999999218	right	TRUE	234
BB	sugár	FALSE	0.422	0.6129999999999427	right	TRUE	235
BB	viszkózus	FALSE	-0.482	2.0639999999999645	right	TRUE	236
BB	példakép	FALSE	0.329	0.7480000000000473	right	TRUE	237
BB	dipeptid	FALSE	-1.46	2.3780000000000427	right	TRUE	238
BB	reform	FALSE	0.936	0.6689999999999827	right	TRUE	240
BB	ingváll	FALSE	-1.276	1.719000000000051	right	TRUE	241
BB	luftballon	FALSE	-1.821	1.0259999999999536	right	TRUE	244
BB	sárgaréz	FALSE	-0.031	1.27800000000002	right	TRUE	245
BB	sporthorgász	FALSE	-0.907	1.62600000000009	right	TRUE	246
BB	orális	FALSE	0.569	1.19500000000005	right	TRUE	247
BB	összalaj	TRUE	NA	5.987999999999943	left	TRUE	248
BB	reagál	FALSE	1.189	1.1409999999999627	right	TRUE	249
BB	pentez	TRUE	NA	7.624000000000024	right	FALSE	250
ID312	svábtök	FALSE	-3.87	12.488699999809256	left	FALSE	22
ID312	skubizik	FALSE	-3.171	1.6025000000000205	right	TRUE	46
ID312	komál	FALSE	-2.031	1.0732999997139243	right	TRUE	96
ID312	gerencsér	FALSE	-1.63	1.36099999999999	right	TRUE	100
ID312	genom	FALSE	0.016	17.81890000009537	left	FALSE	52
ID312	bárányfark	FALSE	-3.092	1.5683000001907883	right	TRUE	69
ID312	kurtít	FALSE	-2.237	1.233000000000061	right	TRUE	112
ID312	csapattest	FALSE	-1.301	1.3792999997139077	right	TRUE	185
ID312	farkasbab	FALSE	-2.154	2.1037999997138854	right	TRUE	42
ID312	árstop	FALSE	-2.365	1.416699999809282	right	TRUE	51
ID312	neoprén	FALSE	-0.057	11.959799999713823	left	FALSE	219
ID312	konverzál	FALSE	-2.967	1.0661000003814252	right	TRUE	225
ID312	dádá	FALSE	-1.428	1.7894000000953554	right	TRUE	1
ID312	fertilis	FALSE	-1.185	14.710899999618562	left	FALSE	60
ID312	törköly	FALSE	-0.572	1.36080000019075	right	TRUE	75
ID312	pauzál	FALSE	-3.092	0.9929000000953464	right	TRUE	135
ID312	kurzív	FALSE	-0.736	3.7126999998092742	right	TRUE	148
ID312	türemlik	FALSE	-2.393	1.2954999999999472	right	TRUE	156
ID312	dipeptid	FALSE	-1.46	14.877700000286154	left	FALSE	200
ID312	ingváll	FALSE	-1.276	1.4051999998092697	right	TRUE	237
ID312	kollapszus	FALSE	-1.065	1.5942999997138827	right	TRUE	65
ID312	ifjít	FALSE	-3.092	1.2735999999046612	right	TRUE	68
ID312	adszorbens	FALSE	-1.303	1.8299000000954493	right	TRUE	193
ID312	hübrisz	FALSE	-0.863	12.67130000019074	left	FALSE	229
ID312	aggófű	FALSE	-1.365	4.502599999904618	left	FALSE	2
ID312	kurzivál	FALSE	-3.092	1.4827999997139043	right	TRUE	71
ID312	infimum	FALSE	-2.339	8.989900000095304	left	FALSE	153
ID312	döföl	FALSE	-2.724	1.220599999904607	right	TRUE	182
ID312	krakéler	FALSE	-1.411	1.423300000190693	right	TRUE	35
ID312	vabank	FALSE	-2.247	2.524699999809286	right	TRUE	97
ID312	diviz	FALSE	-2.569	10.946099999904732	left	FALSE	173
ID312	diffamál	FALSE	-3.393	1.3332999997138586	right	TRUE	192
ID312	derít	FALSE	0.012	2.166300000190745	right	TRUE	3
ID312	lalláz	FALSE	-3.268	8.54249999999999	right	TRUE	4
ID312	heveny	FALSE	0.516	1.9191000003814624	right	TRUE	5
ID312	vényegő	TRUE	NA	4.419499999999999	left	TRUE	6
ID312	egant	TRUE	NA	4.579400000095376	left	TRUE	7
ID312	vároló	TRUE	NA	4.572599999904639	right	FALSE	8
ID312	nagyszámú	FALSE	0.902	1.349199999809258	right	TRUE	9
ID312	abeti	TRUE	NA	3.6676999998092583	left	TRUE	10
ID312	arzénsav	FALSE	-2.408	1.8988999996185216	right	TRUE	11
ID312	norvend	TRUE	NA	6.4187000002861225	left	TRUE	12
ID312	újgazdag	FALSE	-0.337	1.6751999998092515	right	TRUE	13
ID312	magmatit	FALSE	-2.666	11.00609999990462	right	TRUE	14
ID312	storítő	TRUE	NA	2.7972000002860966	left	TRUE	15
ID312	selypít	FALSE	-1.452	4.851299999713888	right	TRUE	16
ID312	csüggeszt	FALSE	-1.753	1.5171999998092645	right	TRUE	17
ID312	lejmol	FALSE	-2.031	1.7489999999999952	right	TRUE	18
ID312	olaj	FALSE	1.54	1.1849000000953538	right	TRUE	19
ID312	kislány	FALSE	1.415	1.3605000000000018	right	TRUE	20
ID312	lélek	FALSE	1.694	1.0665999999046392	right	TRUE	21
ID312	forgórész	FALSE	-0.244	9.19359999990462	right	TRUE	23
ID312	látszik	FALSE	2.055	1.4415999999046107	right	TRUE	24
ID312	mítosz	FALSE	0.619	1.4869000000953747	right	TRUE	25
ID312	anorák	FALSE	-1.335	1.375300000190748	right	TRUE	26
ID312	kalcium	FALSE	1.004	1.3380000000000225	right	TRUE	27
ID312	sziszeg	FALSE	-0.745	1.5657000002861423	right	TRUE	28
ID312	kanalaz	FALSE	-1.325	1.2869999999999775	right	TRUE	29
ID312	szalicil	FALSE	-0.79	1.1163000001907335	right	TRUE	30
ID312	irány	FALSE	1.373	0.9165999999046336	right	TRUE	31
ID312	hidroxid	FALSE	-0.536	1.4651999998092151	right	TRUE	32
ID312	kötődik	FALSE	1.137	1.2602000002860905	right	TRUE	33
ID312	grafikon	FALSE	0.471	1.288499999999999	right	TRUE	34
ID312	templomoz	FALSE	-3.092	1.54830000019075	right	TRUE	36
ID312	retálhit	TRUE	NA	10.690900000095326	left	TRUE	37
ID312	komplex	FALSE	1.745	1.3547000002861296	right	TRUE	38
ID312	iszlám	FALSE	1.246	1.345400000095367	right	TRUE	39
ID312	dolgozik	FALSE	1.948	1.067400000095347	right	TRUE	40
ID312	gyülemlik	FALSE	-1.145	1.1992000002861118	right	TRUE	41
ID312	keresztény	FALSE	1.817	1.416600000381493	right	TRUE	43
ID312	piktogram	FALSE	-0.278	1.6329999999999814	right	TRUE	44
ID312	alkalom	FALSE	1.587	0.9977000002861018	right	TRUE	45
ID312	szokik	FALSE	-0.316	1.4993000001907149	right	TRUE	47
ID312	puritán	FALSE	0.459	1.2705999999046185	right	TRUE	48
ID312	retta	TRUE	NA	12.139700000286098	left	TRUE	49
ID312	kitin	FALSE	-0.946	2.6982999997138677	right	TRUE	50
ID312	kilukát	TRUE	NA	6.911800000190738	left	TRUE	53
ID312	rekvizit	FALSE	-1.973	1.9746999998092176	right	TRUE	54
ID312	tropikus	FALSE	-0.563	1.2774000000953831	right	TRUE	55
ID312	lépték	FALSE	0.16	1.0700999999046417	right	TRUE	56
ID312	hajlik	FALSE	0.575	1.0207000002861264	right	TRUE	57
ID312	káder	FALSE	-0.593	0.9243000001907262	right	TRUE	58
ID312	móringol	FALSE	-2.967	2.1000000000000227	right	TRUE	59
ID312	megpadék	TRUE	NA	7.1772999997139095	left	TRUE	61
ID312	időszak	FALSE	1.939	1.1406999998092715	right	TRUE	62
ID312	profit	FALSE	0.862	1.1833999996185298	right	TRUE	63
ID312	végbél	FALSE	0.305	1.1327000002860927	right	TRUE	64
ID312	turné	FALSE	0.819	2.071900000095411	right	TRUE	66
ID312	tököl	FALSE	-1.12	1.1530999999046685	right	TRUE	67
ID312	csapdáz	FALSE	-3.268	1.116799999713919	right	TRUE	70
ID312	dolog	FALSE	2.387	0.9430000000000404	right	TRUE	72
ID312	vonzum	TRUE	NA	1.3370999999046376	right	FALSE	73
ID312	nukleon	FALSE	-1.266	1.4659000000953597	right	TRUE	74
ID312	libling	FALSE	-1.946	1.5990000000000464	right	TRUE	76
ID312	bacon	FALSE	0.189	1.699599999904649	right	TRUE	77
ID312	viszkózus	FALSE	-0.482	1.8868000001907603	right	TRUE	78
ID312	darab	FALSE	2.044	0.8838999996185635	right	TRUE	79
ID312	sporthorgász	FALSE	-0.907	1.2581999998092783	right	TRUE	80
ID312	lublika	TRUE	NA	1.1602000002861246	right	FALSE	81
ID312	rövid	FALSE	2.339	0.86929999971386	right	TRUE	82
ID312	gyásos	TRUE	NA	5.153500000000008	left	TRUE	83
ID312	változik	FALSE	1.765	1.4398000001907008	right	TRUE	84
ID312	extuál	TRUE	NA	1.2823999996185194	right	FALSE	85
ID312	biliárd	FALSE	-0.011	0.9089000000953432	right	TRUE	86
ID312	hatalom	FALSE	1.658	0.8098999996185512	right	TRUE	87
ID312	rakódik	FALSE	0.094	0.9211999998092324	right	TRUE	88
ID312	áradmány	FALSE	-2.64	0.8184999999999718	right	TRUE	89
ID312	méhezter	TRUE	NA	15.396999999999991	left	TRUE	90
ID312	tangózik	FALSE	-1.78	1.9188999996185316	right	TRUE	91
ID312	tajtásos	TRUE	NA	2.03860000038145	right	FALSE	92
ID312	mimézis	FALSE	-1.054	2.125800000190736	right	TRUE	93
ID312	hálózsák	FALSE	-0.037	1.1497000002861455	right	TRUE	94
ID312	eszköz	FALSE	1.983	0.8754999999999882	right	TRUE	95
ID312	színpad	FALSE	1.058	0.8720000000000141	right	TRUE	98
ID312	mellényzseb	FALSE	-1.973	1.3829000000953895	right	TRUE	99
ID312	vetézmés	TRUE	NA	8.996400000095377	left	TRUE	101
ID312	rücsök	FALSE	-1.879	1.6849000000953538	right	TRUE	102
ID312	petél	FALSE	-3.092	1.1160000000000423	right	TRUE	103
ID312	tröshet	TRUE	NA	3.1538000001906994	left	TRUE	104
ID312	égitest	FALSE	0.434	1.2683000001907203	right	TRUE	105
ID312	törékeny	FALSE	0.894	1.049700000286066	right	TRUE	106
ID312	glükóz	FALSE	0.41	1.399300000190692	right	TRUE	107
ID312	nárcisz	FALSE	-0.25	1.0682999997138722	right	TRUE	108
ID312	rotor	FALSE	-0.054	1.6411999998092597	right	TRUE	109
ID312	ómagyar	FALSE	-0.441	1.2928000001907094	right	TRUE	110
ID312	ószeven	TRUE	NA	2.010899999618573	right	FALSE	111
ID312	balközép	FALSE	-0.179	1.136799999713844	right	TRUE	113
ID312	transzplantál	FALSE	-3.092	1.6083999996184275	right	TRUE	114
ID312	árus	FALSE	-0.422	0.9693999996185312	right	TRUE	115
ID312	viszkóz	FALSE	-0.61	1.0934000000953574	right	TRUE	116
ID312	ernyak	TRUE	NA	5.786900000095443	left	TRUE	117
ID312	népszerű	FALSE	1.814	2.469400000095334	right	TRUE	118
ID312	koenzim	FALSE	0.003	1.406399999618543	right	TRUE	119
ID312	gyűjtemény	FALSE	1.112	1.0408000001907567	right	TRUE	120
ID312	nagybeteg	FALSE	-0.276	1.768799999713906	right	TRUE	121
ID312	ború	FALSE	-0.485	0.9435999999045634	right	TRUE	122
ID312	aragas	TRUE	NA	1.2880999999046026	right	FALSE	123
ID312	űrlap	FALSE	1.015	0.9560999999046088	right	TRUE	124
ID312	gyapot	FALSE	-0.198	0.9174000000954264	right	TRUE	125
ID312	barát	FALSE	1.221	0.798699999809287	right	TRUE	126
ID312	horizont	FALSE	0.296	1.1029000000953602	right	TRUE	127
ID312	vésségi	TRUE	NA	7.7933999996186	left	TRUE	128
ID312	kelől	TRUE	NA	8.126500000000078	left	TRUE	129
ID312	kúpol	FALSE	-1.906	2.0522000002861205	right	TRUE	130
ID312	bajuszfű	FALSE	-2.967	1.8934000000954256	right	TRUE	131
ID312	könnyelmű	FALSE	0.019	1.6547999997138731	right	TRUE	132
ID312	lágyék	FALSE	-0.685	1.2171000003814925	right	TRUE	133
ID312	testnedv	FALSE	-0.969	1.0005999999045798	right	TRUE	134
ID312	csontdarab	FALSE	-1.165	1.4490999999046608	right	TRUE	136
ID312	század	FALSE	2.036	0.842599999904678	right	TRUE	137
ID312	kontrapunkt	FALSE	-1.743	1.6896999998092497	right	TRUE	138
ID312	szabotró	TRUE	NA	4.896799999713835	left	TRUE	139
ID312	cugehőr	FALSE	-2.916	4.321299999713915	right	TRUE	140
ID312	csatázik	FALSE	-0.489	1.593699999809246	right	TRUE	141
ID312	tenger	FALSE	1.456	0.9185999999047	right	TRUE	142
ID312	gazdag	FALSE	1.977	0.9411000003814252	right	TRUE	143
ID312	szilikát	FALSE	-0.363	1.1379000000953283	right	TRUE	144
ID312	rozintem	TRUE	NA	8.818699999809269	right	FALSE	145
ID312	tömzsa	TRUE	NA	5.418800000190686	left	TRUE	146
ID312	lukaszt	FALSE	-2.591	22.951900000095293	right	TRUE	147
ID312	zomogyi	TRUE	NA	2.9729999999999563	left	TRUE	149
ID312	donhuán	FALSE	-2.472	2.5116999998092524	right	TRUE	150
ID312	referál	FALSE	-0.432	1.3495999999046262	right	TRUE	151
ID312	hider	TRUE	NA	2.2631999998093306	left	TRUE	152
ID312	extrém	FALSE	1.384	1.3969000000953429	right	TRUE	154
ID312	kulcscsont	FALSE	-0.536	1.262800000190737	right	TRUE	155
ID312	lemesség	TRUE	NA	8.881799999713849	left	TRUE	157
ID312	ausztrál	FALSE	1.198	1.6504999999999654	right	TRUE	158
ID312	glosszáz	FALSE	-3.569	1.533299999713904	right	TRUE	159
ID312	cséltás	TRUE	NA	8.278400000095303	left	TRUE	160
ID312	kocskesi	TRUE	NA	10.654499999999985	right	FALSE	161
ID312	bizmut	FALSE	-0.988	1.396000000000072	right	TRUE	162
ID312	csenyei	TRUE	NA	1.648599999904718	right	FALSE	163
ID312	jegedény	TRUE	NA	7.996499999999969	left	TRUE	164
ID312	hidegház	FALSE	-2.509	2.0950000000000273	right	TRUE	165
ID312	orront	FALSE	-2.057	1.5824999999999818	right	TRUE	166
ID312	lakotthely	FALSE	-2.472	1.4853000001907048	right	TRUE	167
ID312	kencéz	FALSE	-3.569	1.703400000095371	right	TRUE	168
ID312	rejtőzik	FALSE	0.612	1.1124000000953629	right	TRUE	169
ID312	komoly	FALSE	2.29	0.9468000001908194	right	TRUE	170
ID312	szegény	FALSE	1.681	0.9208999996184276	right	TRUE	171
ID312	alfél	FALSE	-2.365	1.7122000002860889	right	TRUE	172
ID312	mihálóz	TRUE	NA	2.928099999904589	right	FALSE	174
ID312	rojtoz	TRUE	NA	1.2949000000953674	right	FALSE	175
ID312	reform	FALSE	0.936	1.0641999998093752	right	TRUE	176
ID312	forrpont	FALSE	-1.542	1.2435999999046317	right	TRUE	177
ID312	reagál	FALSE	1.189	0.9529999999999744	right	TRUE	178
ID312	százalék	FALSE	1.899	0.9340999999046744	right	TRUE	179
ID312	összalaj	TRUE	NA	13.63529999971388	left	TRUE	180
ID312	takorák	TRUE	NA	7.895299999713984	left	TRUE	181
ID312	karnogó	TRUE	NA	1.928900000095382	left	TRUE	183
ID312	parkkói	TRUE	NA	12.687300000190705	left	TRUE	184
ID312	püffeszt	FALSE	-3.87	1.1304999999999836	right	TRUE	186
ID312	fajansz	FALSE	-0.829	1.0469999999999118	right	TRUE	187
ID312	novagár	TRUE	NA	11.06430000019077	left	TRUE	188
ID312	lazúroz	FALSE	-3.569	2.116799999713976	right	TRUE	189
ID312	viszonvád	FALSE	-2.163	2.5837999997138468	right	TRUE	190
ID312	diktátor	FALSE	0.599	1.0299999999999727	right	TRUE	191
ID312	dohorpák	TRUE	NA	4.406199999809246	left	TRUE	194
ID312	pereg	FALSE	0.061	1.6786000003814934	right	TRUE	195
ID312	tábornagy	FALSE	-0.321	1.0565999999046198	right	TRUE	196
ID312	tarol	FALSE	-0.219	0.8516999998092842	right	TRUE	197
ID312	bajadér	FALSE	-1.417	0.9890999999046244	right	TRUE	198
ID312	kárpit	FALSE	0.194	1.5733000001906703	right	TRUE	199
ID312	töredék	FALSE	0.316	1.6795000000000757	right	TRUE	201
ID312	délceg	FALSE	-0.228	1.2009000000954302	right	TRUE	202
ID312	kosi	TRUE	NA	1.200300000190737	right	FALSE	203
ID312	sárgaréz	FALSE	-0.031	0.8634000000953392	right	TRUE	204
ID312	csengettyű	FALSE	-0.622	0.7823999996185194	right	TRUE	205
ID312	közhely	FALSE	0.426	0.7883000001907021	right	TRUE	206
ID312	példakép	FALSE	0.329	0.7159000000954165	right	TRUE	207
ID312	pentez	TRUE	NA	10.095599999904609	left	TRUE	208
ID312	bélyeg	FALSE	0.274	4.5361999998092415	right	TRUE	209
ID312	nimbus	FALSE	-2.756	1.4808999996186003	right	TRUE	210
ID312	úszamos	TRUE	NA	6.660199999809265	left	TRUE	211
ID312	truccol	FALSE	-2.694	2.150900000095362	right	TRUE	212
ID312	ion	FALSE	0.155	1.3614999999999782	right	TRUE	213
ID312	bolgár	FALSE	1.03	1.9119999999999209	right	TRUE	214
ID312	hitódó	TRUE	NA	4.675599999904648	left	TRUE	215
ID312	örmény	FALSE	0.795	1.1678000001907094	right	TRUE	216
ID312	beton	FALSE	1.056	1.2524999999999409	right	TRUE	217
ID312	orális	FALSE	0.569	2.5625	right	TRUE	218
ID312	rámáz	FALSE	-3.171	1.53449999999998	right	TRUE	220
ID312	tartalom	FALSE	1.71	0.898600000381407	right	TRUE	221
ID312	jármű	FALSE	1.595	0.8478000001906594	right	TRUE	222
ID312	konyrúd	TRUE	NA	1.1361999998092642	right	FALSE	223
ID312	elegy	FALSE	-1.266	0.635800000190784	right	TRUE	224
ID312	cianid	FALSE	-0.711	1.3485000000000582	right	TRUE	226
ID312	pohár	FALSE	1.388	0.7640999999046016	right	TRUE	227
ID312	csüggedez	FALSE	-2.756	1.030699999809258	right	TRUE	228
ID312	luftballon	FALSE	-1.821	2.1474999999999227	right	TRUE	230
ID312	aurult	TRUE	NA	10.025800000190657	left	TRUE	231
ID312	karakter	FALSE	1.43	1.279700000286084	right	TRUE	232
ID312	sugár	FALSE	0.422	0.9291999998092706	right	TRUE	233
ID312	fürkész	FALSE	-0.829	0.9014000000953502	right	TRUE	234
ID312	szimboló	TRUE	NA	1.2974000000953083	right	FALSE	235
ID312	kvéker	FALSE	-1.672	1.299300000190783	right	TRUE	236
ID312	igény	FALSE	1.885	0.8335999999045498	right	TRUE	238
ID312	kunyai	TRUE	NA	15.37659999990467	left	TRUE	239
ID312	tortya	TRUE	NA	13.189700000286166	left	TRUE	240
ID312	szelégül	TRUE	NA	2.3437999997139514	right	FALSE	241
ID312	régész	FALSE	0.538	0.8369999999999891	right	TRUE	242
ID312	kettősfém	FALSE	-2.756	1.1957000002861378	right	TRUE	243
ID312	ellenfél	FALSE	1.362	0.9145999999046808	right	TRUE	244
ID312	törődik	FALSE	0.7	0.9713000001908084	right	TRUE	245
ID312	piláf	FALSE	-1.262	1.535799999713845	right	TRUE	246
ID312	abszint	FALSE	-0.659	3.1130000000000564	right	TRUE	247
ID312	szempont	FALSE	1.61	1.205299999713816	right	TRUE	248
ID312	nyersarany	FALSE	-2.548	1.2227999997139705	right	TRUE	249
ID312	kondenzcsík	FALSE	-1.009	1.370599999904698	right	TRUE	250
ID315	kurtít	FALSE	-2.237	1.9477000002860905	right	TRUE	6
ID315	bárányfark	FALSE	-3.092	1.3805999999045753	right	TRUE	157
ID315	csapattest	FALSE	-1.301	1.9431999998092808	right	TRUE	203
ID315	genom	FALSE	0.016	9.446800000190706	left	FALSE	239
ID315	mellényzseb	FALSE	-1.973	2.403599999904628	right	TRUE	1
ID315	csontdarab	FALSE	-1.165	1.9720000000000084	right	TRUE	2
ID315	kanalaz	FALSE	-1.325	1.883599999904618	right	TRUE	3
ID315	csüggeszt	FALSE	-1.753	1.028100000381471	right	TRUE	4
ID315	glosszáz	FALSE	-3.569	3.275499999999994	right	TRUE	5
ID315	infimum	FALSE	-2.339	4.340200000286103	right	TRUE	7
ID315	kurzív	FALSE	-0.736	2.170100000381467	right	TRUE	8
ID315	lélek	FALSE	1.694	1.5181999998092692	right	TRUE	9
ID315	truccol	FALSE	-2.694	2.6465999999046517	right	TRUE	10
ID315	svábtök	FALSE	-3.87	2.2963000001907403	right	TRUE	11
ID315	reform	FALSE	0.936	1.3593000001907285	right	TRUE	12
ID315	transzplantál	FALSE	-3.092	2.266200000286119	right	TRUE	13
ID315	szegény	FALSE	1.681	1.1684000000953745	right	TRUE	14
ID315	bajuszfű	FALSE	-2.967	2.628599999904651	right	TRUE	15
ID315	törődik	FALSE	0.7	1.692699999809264	right	TRUE	16
ID315	változik	FALSE	1.765	1.114600000381472	right	TRUE	17
ID315	viszkózus	FALSE	-0.482	1.445999999999998	right	TRUE	18
ID315	referál	FALSE	-0.432	1.4778999996185291	right	TRUE	19
ID315	lublika	TRUE	NA	7.722799999713885	left	TRUE	20
ID315	cianid	FALSE	-0.711	1.8824999999999932	right	TRUE	21
ID315	darab	FALSE	2.044	1.2265999999046358	right	TRUE	22
ID315	újgazdag	FALSE	-0.337	1.4039999999999964	right	TRUE	23
ID315	bacon	FALSE	0.189	1.4964000000953774	right	TRUE	24
ID315	kvéker	FALSE	-1.672	1.7269000000953838	right	TRUE	25
ID315	szimboló	TRUE	NA	2.572099999904651	right	FALSE	26
ID315	elegy	FALSE	-1.266	1.3436999998092745	right	TRUE	27
ID315	forgórész	FALSE	-0.244	1.3810000000000002	right	TRUE	28
ID315	időszak	FALSE	1.939	1.1420000000000243	right	TRUE	29
ID315	forrpont	FALSE	-1.542	1.1389999999999816	right	TRUE	30
ID315	pentez	TRUE	NA	8.348199999809253	left	TRUE	31
ID315	retta	TRUE	NA	2.602100000381455	right	FALSE	32
ID315	konyrúd	TRUE	NA	1.4815000000000111	right	FALSE	33
ID315	pohár	FALSE	1.388	1.2981999998092704	right	TRUE	34
ID315	tangózik	FALSE	-1.78	1.2435000000000116	right	TRUE	35
ID315	kilukát	TRUE	NA	1.3550999999046385	right	FALSE	36
ID315	konverzál	FALSE	-2.967	1.352400000095372	right	TRUE	37
ID315	lukaszt	FALSE	-2.591	2.17770000028608	right	TRUE	38
ID315	törköly	FALSE	-0.572	7.553200000286097	right	TRUE	39
ID315	ifjít	FALSE	-3.092	4.7568999996185255	right	TRUE	40
ID315	diktátor	FALSE	0.599	3.983499999999992	right	TRUE	41
ID315	vonzum	TRUE	NA	2.318499999999972	right	FALSE	42
ID315	alkalom	FALSE	1.587	1.4679000000953693	right	TRUE	43
ID315	kárpit	FALSE	0.194	1.3297999997138843	right	TRUE	44
ID315	derít	FALSE	0.012	1.4149999999999636	right	TRUE	45
ID315	tenger	FALSE	1.456	1.261299999713856	right	TRUE	46
ID315	parkkói	TRUE	NA	3.774699999809286	right	FALSE	47
ID315	aurult	TRUE	NA	4.299199999809275	left	TRUE	48
ID315	cugehőr	FALSE	-2.916	2.0338000001907517	right	TRUE	49
ID315	extuál	TRUE	NA	2.1198999996185535	right	FALSE	50
ID315	lemesség	TRUE	NA	5.073900000095364	right	FALSE	51
ID315	összalaj	TRUE	NA	1.7794999999999843	right	FALSE	52
ID315	aragas	TRUE	NA	5.813300000190736	left	TRUE	53
ID315	móringol	FALSE	-2.967	2.48389999961853	right	TRUE	54
ID315	lejmol	FALSE	-2.031	1.7690000000000057	right	TRUE	55
ID315	rücsök	FALSE	-1.879	1.6398000001907462	right	TRUE	56
ID315	tarol	FALSE	-0.219	1.568099999904632	right	TRUE	57
ID315	olaj	FALSE	1.54	1.466799999713885	right	TRUE	58
ID315	neoprén	FALSE	-0.057	1.5631999998092283	right	TRUE	59
ID315	hajlik	FALSE	0.575	1.5161999998092597	right	TRUE	60
ID315	puritán	FALSE	0.459	1.4164000000953934	right	TRUE	61
ID315	gerencsér	FALSE	-1.63	2.0076000003814443	right	TRUE	62
ID315	heveny	FALSE	0.516	1.5405999999046005	right	TRUE	63
ID315	komoly	FALSE	2.29	1.087199999809286	right	TRUE	64
ID315	zomogyi	TRUE	NA	1.4016999998092388	right	FALSE	65
ID315	turné	FALSE	0.819	1.3322000002860932	right	TRUE	66
ID315	bizmut	FALSE	-0.988	2.0044999999999504	right	TRUE	67
ID315	jármű	FALSE	1.595	1.2804000000953693	right	TRUE	68
ID315	szabotró	TRUE	NA	7.726099999904648	left	TRUE	69
ID315	tröshet	TRUE	NA	2.144599999904642	right	FALSE	70
ID315	püffeszt	FALSE	-3.87	2.3003000001907594	right	TRUE	71
ID315	kocskesi	TRUE	NA	1.727400000095372	right	FALSE	72
ID315	mihálóz	TRUE	NA	1.8479000000953647	right	FALSE	73
ID315	rekvizit	FALSE	-1.973	1.6347999997138911	right	TRUE	74
ID315	aggófű	FALSE	-1.365	2.95959999990464	right	TRUE	75
ID315	látszik	FALSE	2.055	1.4277000002861089	right	TRUE	76
ID315	csüggedez	FALSE	-2.756	1.3957999997139154	right	TRUE	77
ID315	hübrisz	FALSE	-0.863	2.6539999999999964	right	TRUE	78
ID315	rejtőzik	FALSE	0.612	1.4212000002860918	right	TRUE	79
ID315	délceg	FALSE	-0.228	1.6597000002861364	right	TRUE	80
ID315	úszamos	TRUE	NA	3.9004999999999654	left	TRUE	81
ID315	szempont	FALSE	1.61	1.481099999904643	right	TRUE	82
ID315	reagál	FALSE	1.189	1.33299999999997	right	TRUE	83
ID315	lágyék	FALSE	-0.685	1.4266000003814838	right	TRUE	84
ID315	káder	FALSE	-0.593	1.282000000000039	right	TRUE	85
ID315	magmatit	FALSE	-2.666	1.5056000003814347	right	TRUE	86
ID315	tököl	FALSE	-1.12	1.555600000381446	right	TRUE	87
ID315	nárcisz	FALSE	-0.25	1.205500000000029	right	TRUE	88
ID315	libling	FALSE	-1.946	1.3941999998093024	right	TRUE	89
ID315	türemlik	FALSE	-2.393	1.3925999999046326	right	TRUE	90
ID315	barát	FALSE	1.221	1.1466999998092433	right	TRUE	91
ID315	kislány	FALSE	1.415	1.008799999713915	right	TRUE	92
ID315	égitest	FALSE	0.434	1.0013999996185703	right	TRUE	93
ID315	koenzim	FALSE	0.003	1.0822000002860932	right	TRUE	94
ID315	nagybeteg	FALSE	-0.276	1.0924999999999727	right	TRUE	95
ID315	ernyak	TRUE	NA	3.0534999999999854	right	FALSE	96
ID315	fertilis	FALSE	-1.185	1.8881999998092736	right	TRUE	97
ID315	kulcscsont	FALSE	-0.536	1.6623999996185148	right	TRUE	98
ID315	egant	TRUE	NA	7.093600000381457	left	TRUE	99
ID315	hitódó	TRUE	NA	3.008799999713858	right	FALSE	100
ID315	abeti	TRUE	NA	2.5757999997139223	right	FALSE	101
ID315	ellenfél	FALSE	1.362	1.52780000019078	right	TRUE	102
ID315	tajtásos	TRUE	NA	2.7922000002861296	right	FALSE	103
ID315	jegedény	TRUE	NA	2.999300000190715	right	FALSE	104
ID315	hatalom	FALSE	1.658	1.898200000286124	right	TRUE	105
ID315	tropikus	FALSE	-0.563	1.56269999980924	right	TRUE	106
ID315	bélyeg	FALSE	0.274	0.9979000000953988	right	TRUE	107
ID315	tartalom	FALSE	1.71	0.9111999998092984	right	TRUE	108
ID315	mimézis	FALSE	-1.054	1.0256999998092624	right	TRUE	109
ID315	piláf	FALSE	-1.262	1.2523000001907576	right	TRUE	110
ID315	hider	TRUE	NA	3.316900000095359	right	FALSE	111
ID315	rámáz	FALSE	-3.171	1.8267999997138984	right	TRUE	112
ID315	ómagyar	FALSE	-0.441	2.0140999999046016	right	TRUE	113
ID315	rozintem	TRUE	NA	1.392699999809281	right	FALSE	114
ID315	végbél	FALSE	0.305	1.4265999999046244	right	TRUE	115
ID315	gyülemlik	FALSE	-1.145	1.7789000000954047	right	TRUE	116
ID315	dádá	FALSE	-1.428	1.4645000000000437	right	TRUE	117
ID315	vabank	FALSE	-2.247	2.213099999904614	right	TRUE	118
ID315	vetézmés	TRUE	NA	7.158800000190695	right	FALSE	119
ID315	csatázik	FALSE	-0.489	1.5373000001907258	right	TRUE	120
ID315	glükóz	FALSE	0.41	1.5530999999046458	right	TRUE	121
ID315	század	FALSE	2.036	1.2282000002861082	right	TRUE	122
ID315	cséltás	TRUE	NA	5.187000000000012	left	TRUE	123
ID315	színpad	FALSE	1.058	1.6151999998092492	right	TRUE	124
ID315	szelégül	TRUE	NA	1.8965999999046517	right	FALSE	125
ID315	tortya	TRUE	NA	1.3150999999046462	right	FALSE	126
ID315	orront	FALSE	-2.057	1.5100999999046394	right	TRUE	127
ID315	nyersarany	FALSE	-2.548	1.5773999996185353	right	TRUE	128
ID315	űrlap	FALSE	1.015	1.4935999999046317	right	TRUE	129
ID315	közhely	FALSE	0.426	1.067299999713896	right	TRUE	130
ID315	viszonvád	FALSE	-2.163	1.4354999999999905	right	TRUE	131
ID315	kelől	TRUE	NA	2.43570000028609	right	FALSE	132
ID315	lalláz	FALSE	-3.268	1.7860000000000014	right	TRUE	133
ID315	lakotthely	FALSE	-2.472	1.39370000028606	right	TRUE	134
ID315	takorák	TRUE	NA	1.5126999998092856	right	FALSE	135
ID315	árus	FALSE	-0.422	1.2324000000953674	right	TRUE	136
ID315	törékeny	FALSE	0.894	1.1093000001907285	right	TRUE	137
ID315	skubizik	FALSE	-3.171	1.6662999997139425	right	TRUE	138
ID315	komplex	FALSE	1.745	1.5088000001907176	right	TRUE	139
ID315	sugár	FALSE	0.422	1.3007000002860991	right	TRUE	140
ID315	gyapot	FALSE	-0.198	1.17349999999999	right	TRUE	141
ID315	ószeven	TRUE	NA	1.363700000286144	right	FALSE	142
ID315	extrém	FALSE	1.384	1.135300000190739	right	TRUE	143
ID315	szilikát	FALSE	-0.363	1.3625999999045462	right	TRUE	144
ID315	farkasbab	FALSE	-2.154	1.266299999713851	right	TRUE	145
ID315	krakéler	FALSE	-1.411	2.766599999904656	right	TRUE	146
ID315	szalicil	FALSE	-0.79	1.4104000000953647	right	TRUE	147
ID315	kollapszus	FALSE	-1.065	1.5533000001908022	right	TRUE	148
ID315	kúpol	FALSE	-1.906	1.835099999904628	right	TRUE	149
ID315	norvend	TRUE	NA	6.872100000381465	left	TRUE	150
ID315	kitin	FALSE	-0.946	1.7335000000000491	right	TRUE	151
ID315	bajadér	FALSE	-1.417	1.3633000001907476	right	TRUE	152
ID315	keresztény	FALSE	1.817	1.3194999999999482	right	TRUE	153
ID315	megpadék	TRUE	NA	1.509400000095411	right	FALSE	154
ID315	kurzivál	FALSE	-3.092	2.450299999713934	right	TRUE	155
ID315	sziszeg	FALSE	-0.745	1.3934000000954256	right	TRUE	156
ID315	igény	FALSE	1.885	1.1306999998092806	right	TRUE	158
ID315	retálhit	TRUE	NA	3.9522000002860977	right	FALSE	159
ID315	irány	FALSE	1.373	1.1255999999045798	right	TRUE	160
ID315	novagár	TRUE	NA	2.047099999904617	right	FALSE	161
ID315	karakter	FALSE	1.43	1.60450000000003	right	TRUE	162
ID315	gyásos	TRUE	NA	2.065200000286154	right	FALSE	163
ID315	fürkész	FALSE	-0.829	1.314799999713955	right	TRUE	164
ID315	hidroxid	FALSE	-0.536	1.3324000000953902	right	TRUE	165
ID315	kalcium	FALSE	1.004	1.0602999997139475	right	TRUE	166
ID315	csengettyű	FALSE	-0.622	1.6329000000954466	right	TRUE	167
ID315	beton	FALSE	1.056	1.163199999809308	right	TRUE	168
ID315	karnogó	TRUE	NA	2.417500000000018	right	FALSE	169
ID315	vésségi	TRUE	NA	11.022500000000036	left	TRUE	170
ID315	petél	FALSE	-3.092	2.6658000001907567	right	TRUE	171
ID315	ion	FALSE	0.155	1.144299999713894	right	TRUE	172
ID315	sárgaréz	FALSE	-0.031	1.3815999999046653	right	TRUE	173
ID315	bolgár	FALSE	1.03	1.2254000000953056	right	TRUE	174
ID315	dolog	FALSE	2.387	1.121300000190672	right	TRUE	175
ID315	nimbus	FALSE	-2.756	1.2047000002861523	right	TRUE	176
ID315	pauzál	FALSE	-3.092	1.2269999999999754	right	TRUE	177
ID315	balközép	FALSE	-0.179	1.2622000002861569	right	TRUE	178
ID315	dohorpák	TRUE	NA	3.8522999997139777	right	FALSE	179
ID315	donhuán	FALSE	-2.472	2.3664999999999736	right	TRUE	180
ID315	horizont	FALSE	0.296	1.3605999999045937	right	TRUE	181
ID315	árstop	FALSE	-2.365	1.3304000000953238	right	TRUE	182
ID315	hidegház	FALSE	-2.509	1.3029999999999973	right	TRUE	183
ID315	mítosz	FALSE	0.619	1.2009000000954302	right	TRUE	184
ID315	ború	FALSE	-0.485	1.1330999999046298	right	TRUE	185
ID315	töredék	FALSE	0.316	1.023400000095421	right	TRUE	186
ID315	ingváll	FALSE	-1.276	1.030099999904678	right	TRUE	187
ID315	grafikon	FALSE	0.471	1.1301999998092924	right	TRUE	188
ID315	példakép	FALSE	0.329	0.894200000286105	right	TRUE	189
ID315	alfél	FALSE	-2.365	1.0643000001907694	right	TRUE	190
ID315	templomoz	FALSE	-3.092	1.7120999999046944	right	TRUE	191
ID315	biliárd	FALSE	-0.011	1.1019999999999754	right	TRUE	192
ID315	komál	FALSE	-2.031	1.5655999999046344	right	TRUE	193
ID315	kosi	TRUE	NA	1.4167000002860275	right	FALSE	194
ID315	arzénsav	FALSE	-2.408	1.276099999904659	right	TRUE	195
ID315	döföl	FALSE	-2.724	0.5326000003815352	right	TRUE	196
ID315	sporthorgász	FALSE	-0.907	2.023399999618505	right	TRUE	197
ID315	áradmány	FALSE	-2.64	1.5234000000953074	right	TRUE	198
ID315	luftballon	FALSE	-1.821	1.699400000095352	right	TRUE	199
ID315	pereg	FALSE	0.061	1.2891999998092842	right	TRUE	200
ID315	hálózsák	FALSE	-0.037	1.4371999998093088	right	TRUE	201
ID315	rotor	FALSE	-0.054	1.8109999999999216	right	TRUE	202
ID315	méhezter	TRUE	NA	3.661599999904638	right	FALSE	204
ID315	vároló	TRUE	NA	4.363700000286144	right	FALSE	205
ID315	népszerű	FALSE	1.814	1.3131999998092851	right	TRUE	206
ID315	gazdag	FALSE	1.977	1.260600000381487	right	TRUE	207
ID315	orális	FALSE	0.569	1.5269000000953383	right	TRUE	208
ID315	kötődik	FALSE	1.137	1.2450000000000043	right	TRUE	209
ID315	tábornagy	FALSE	-0.321	1.441000000000031	right	TRUE	210
ID315	rojtoz	TRUE	NA	1.3052999997139525	right	FALSE	211
ID315	nagyszámú	FALSE	0.902	1.0545000000000757	right	TRUE	212
ID315	diviz	FALSE	-2.569	1.1950999999046417	right	TRUE	213
ID315	szokik	FALSE	-0.316	0.97300000000007	right	TRUE	214
ID315	örmény	FALSE	0.795	1.0659000000953256	right	TRUE	215
ID315	testnedv	FALSE	-0.969	1.3948000001906848	right	TRUE	216
ID315	piktogram	FALSE	-0.278	1.434399999618563	right	TRUE	217
ID315	kondenzcsík	FALSE	-1.009	1.7455999999045844	right	TRUE	218
ID315	lépték	FALSE	0.16	1.2105000000000246	right	TRUE	219
ID315	profit	FALSE	0.862	1.2938000001907994	right	TRUE	220
ID315	csenyei	TRUE	NA	3.118300000190743	right	FALSE	221
ID315	selypít	FALSE	-1.452	1.566000000000031	right	TRUE	222
ID315	régész	FALSE	0.538	1.220700000286115	right	TRUE	223
ID315	könnyelmű	FALSE	0.019	1.2647000002860975	right	TRUE	224
ID315	százalék	FALSE	1.899	0.9816000003814906	right	TRUE	225
ID315	tömzsa	TRUE	NA	0.983700000286035	right	FALSE	226
ID315	csapdáz	FALSE	-3.268	1.2314999999999827	right	TRUE	227
ID315	anorák	FALSE	-1.335	1.447099999904708	right	TRUE	228
ID315	gyűjtemény	FALSE	1.112	0.978299999713954	right	TRUE	229
ID315	ausztrál	FALSE	1.198	1.147799999713925	right	TRUE	230
ID315	viszkóz	FALSE	-0.61	1.302300000190712	right	TRUE	231
ID315	kencéz	FALSE	-3.569	0.9694000000953338	right	TRUE	232
ID315	kettősfém	FALSE	-2.756	1.3585999999046408	right	TRUE	233
ID315	diffamál	FALSE	-3.393	4.911200000286044	right	TRUE	234
ID315	abszint	FALSE	-0.659	2.1816000003814224	right	TRUE	235
ID315	fajansz	FALSE	-0.829	1.8122999997139004	right	TRUE	236
ID315	lazúroz	FALSE	-3.569	2.527800000190723	right	TRUE	237
ID315	kontrapunkt	FALSE	-1.743	2.2284000000953483	right	TRUE	238
ID315	dipeptid	FALSE	-1.46	2.229799999713805	right	TRUE	240
ID315	eszköz	FALSE	1.983	1.4038000001906994	right	TRUE	241
ID315	iszlám	FALSE	1.246	1.2106999998092078	right	TRUE	242
ID315	rakódik	FALSE	0.094	1.3272999997138868	right	TRUE	243
ID315	nukleon	FALSE	-1.266	2.7405999999047026	right	TRUE	244
ID315	kunyai	TRUE	NA	1.3180999999045753	right	FALSE	245
ID315	adszorbens	FALSE	-1.303	1.9184999999999943	right	TRUE	246
ID315	storítő	TRUE	NA	2.076000000000022	right	FALSE	247
ID315	dolgozik	FALSE	1.948	1.2110000000000127	right	TRUE	248
ID315	vényegő	TRUE	NA	1.3268999996184905	right	FALSE	249
ID315	rövid	FALSE	2.339	1.0725000000001046	right	TRUE	250
ID316	gerencsér	FALSE	-1.63	3.7804999999999898	right	TRUE	7
ID316	svábtök	FALSE	-3.87	4.061599999904615	left	FALSE	34
ID316	skubizik	FALSE	-3.171	2.2330999999045957	right	TRUE	74
ID316	komál	FALSE	-2.031	1.8894000000953497	right	TRUE	90
ID316	fertilis	FALSE	-1.185	3.797700000286113	left	FALSE	43
ID316	dádá	FALSE	-1.428	1.685099999904594	right	TRUE	69
ID316	törköly	FALSE	-0.572	1.4000999999046826	right	TRUE	222
ID316	pauzál	FALSE	-3.092	1.9003999996185712	right	TRUE	226
ID316	türemlik	FALSE	-2.393	1.4526000003814945	right	TRUE	79
ID316	dipeptid	FALSE	-1.46	5.114099999904624	left	FALSE	83
ID316	kurzív	FALSE	-0.736	1.4055999999046662	right	TRUE	138
ID316	ingváll	FALSE	-1.276	1.8168000001907103	right	TRUE	216
ID316	magmatit	FALSE	-2.666	4.757900000095361	right	TRUE	10
ID316	glosszáz	FALSE	-3.569	2.966800000190716	right	TRUE	39
ID316	viszonvád	FALSE	-2.163	7.026900000095338	left	FALSE	123
ID316	libling	FALSE	-1.946	1.9985000000000357	right	TRUE	169
ID316	truccol	FALSE	-2.694	2.3988000001907324	right	TRUE	41
ID316	kvéker	FALSE	-1.672	1.66700000000003	right	TRUE	177
ID316	mimézis	FALSE	-1.054	2.071599999904606	left	FALSE	228
ID316	bajadér	FALSE	-1.417	1.283600000381398	right	TRUE	250
ID316	rekvizit	FALSE	-1.973	3.4472999997138913	right	TRUE	6
ID316	kontrapunkt	FALSE	-1.743	2.3795000000000073	right	TRUE	19
ID316	orront	FALSE	-2.057	1.963299999713911	right	TRUE	37
ID316	petél	FALSE	-3.092	2.3834999999999127	left	FALSE	161
ID316	aggófű	FALSE	-1.365	2.1003000001908276	left	FALSE	194
ID316	infimum	FALSE	-2.339	5.260400000095387	left	FALSE	196
ID316	kurzivál	FALSE	-3.092	4.080900000095312	right	TRUE	242
ID316	döföl	FALSE	-2.724	2.533999999999992	right	TRUE	245
ID316	diffamál	FALSE	-3.393	2.1439999999999912	right	TRUE	3
ID316	krakéler	FALSE	-1.411	1.9223999996185055	right	TRUE	70
ID316	diviz	FALSE	-2.569	1.7510999999046817	left	FALSE	217
ID316	vabank	FALSE	-2.247	1.6725999999046053	right	TRUE	239
ID316	cianid	FALSE	-0.711	2.16429999971389	right	TRUE	1
ID316	kollapszus	FALSE	-1.065	1.5984999999999872	right	TRUE	2
ID316	égitest	FALSE	0.434	1.316200000286088	right	TRUE	4
ID316	alfél	FALSE	-2.365	3.4484000000953756	right	TRUE	5
ID316	rojtoz	TRUE	NA	2.377199999809278	right	FALSE	8
ID316	rövid	FALSE	2.339	1.331400000095357	right	TRUE	9
ID316	ernyak	TRUE	NA	1.9772999997138925	left	TRUE	11
ID316	áradmány	FALSE	-2.64	3.080200000286112	right	TRUE	12
ID316	mellényzseb	FALSE	-1.973	2.547499999999985	right	TRUE	13
ID316	példakép	FALSE	0.329	1.1654000000953886	right	TRUE	14
ID316	végbél	FALSE	0.305	1.8795000000000073	right	TRUE	15
ID316	neoprén	FALSE	-0.057	3.0166999998092763	right	TRUE	16
ID316	jegedény	TRUE	NA	4.410700000286113	right	FALSE	17
ID316	szempont	FALSE	1.61	4.556800000190719	right	TRUE	18
ID316	rücsök	FALSE	-1.879	2.541900000095353	right	TRUE	20
ID316	lublika	TRUE	NA	4.558699999809278	left	TRUE	21
ID316	norvend	TRUE	NA	2.468900000095374	left	TRUE	22
ID316	dohorpák	TRUE	NA	3.5260999999046305	left	TRUE	23
ID316	árstop	FALSE	-2.365	1.7190999999046142	right	TRUE	24
ID316	koenzim	FALSE	0.003	2.281000000000006	right	TRUE	25
ID316	abszint	FALSE	-0.659	1.5844000000953713	right	TRUE	26
ID316	genom	FALSE	0.016	2.109499999999997	right	TRUE	27
ID316	nimbus	FALSE	-2.756	3.2938000001907426	right	TRUE	28
ID316	tropikus	FALSE	-0.563	1.7782000002861196	right	TRUE	29
ID316	bacon	FALSE	0.189	1.5970000000000084	right	TRUE	30
ID316	ború	FALSE	-0.485	1.6415999999046278	right	TRUE	31
ID316	profit	FALSE	0.862	1.4313000001907312	right	TRUE	32
ID316	bizmut	FALSE	-0.988	1.498800000190755	right	TRUE	33
ID316	népszerű	FALSE	1.814	2.276699999809267	right	TRUE	35
ID316	összalaj	TRUE	NA	4.292000000000002	left	TRUE	36
ID316	hitódó	TRUE	NA	3.381200000286128	left	TRUE	38
ID316	szalicil	FALSE	-0.79	1.8322999997138825	right	TRUE	40
ID316	extuál	TRUE	NA	3.832099999904642	left	TRUE	42
ID316	könnyelmű	FALSE	0.019	1.535000000000025	right	TRUE	44
ID316	hider	TRUE	NA	3.590300000190723	left	TRUE	45
ID316	kondenzcsík	FALSE	-1.009	1.5500000000000114	right	TRUE	46
ID316	elegy	FALSE	-1.266	1.4489000000953638	right	TRUE	47
ID316	kúpol	FALSE	-1.906	1.801499999999976	right	TRUE	48
ID316	tartalom	FALSE	1.71	1.384199999809255	right	TRUE	49
ID316	hidroxid	FALSE	-0.536	1.6990000000000125	right	TRUE	50
ID316	gyásos	TRUE	NA	4.814400000095361	left	TRUE	51
ID316	hálózsák	FALSE	-0.037	3.20209999990459	right	TRUE	52
ID316	kencéz	FALSE	-3.569	1.9155999999046005	right	TRUE	53
ID316	grafikon	FALSE	0.471	1.4335000000000375	right	TRUE	54
ID316	komplex	FALSE	1.745	1.5073000001906962	right	TRUE	55
ID316	aurult	TRUE	NA	4.012599999904637	left	TRUE	56
ID316	eszköz	FALSE	1.983	1.5651000003815057	right	TRUE	57
ID316	viszkózus	FALSE	-0.482	1.8330999999046185	right	TRUE	58
ID316	dolgozik	FALSE	1.948	1.5336000003815116	right	TRUE	59
ID316	arzénsav	FALSE	-2.408	2.168200000286106	right	TRUE	60
ID316	nukleon	FALSE	-1.266	2.1012999997138877	right	TRUE	61
ID316	tortya	TRUE	NA	3.567200000286107	left	TRUE	62
ID316	hajlik	FALSE	0.575	2.049199999809275	right	TRUE	63
ID316	törékeny	FALSE	0.894	1.5354000000953647	right	TRUE	64
ID316	piktogram	FALSE	-0.278	1.6731999998092988	right	TRUE	65
ID316	testnedv	FALSE	-0.969	1.4384999999999764	right	TRUE	66
ID316	törődik	FALSE	0.7	1.7384999999999875	right	TRUE	67
ID316	tömzsa	TRUE	NA	2.247300000190762	left	TRUE	68
ID316	lágyék	FALSE	-0.685	1.3586000003814434	right	TRUE	71
ID316	dolog	FALSE	2.387	1.4505000000000337	right	TRUE	72
ID316	konyrúd	TRUE	NA	4.013899999618559	left	TRUE	73
ID316	látszik	FALSE	2.055	1.7088000001907062	right	TRUE	75
ID316	sugár	FALSE	0.422	1.2909000000953483	right	TRUE	76
ID316	nagybeteg	FALSE	-0.276	1.8828999996185305	right	TRUE	77
ID316	kelől	TRUE	NA	1.916499999999985	left	TRUE	78
ID316	transzplantál	FALSE	-3.092	1.7494000000953631	right	TRUE	80
ID316	rejtőzik	FALSE	0.612	1.2352999997139025	right	TRUE	81
ID316	extrém	FALSE	1.384	1.3326999998092788	right	TRUE	82
ID316	fajansz	FALSE	-0.829	1.7351999998092538	right	TRUE	84
ID316	barát	FALSE	1.221	1.616099999904634	right	TRUE	85
ID316	ómagyar	FALSE	-0.441	1.8030999999046455	right	TRUE	86
ID316	rámáz	FALSE	-3.171	1.5405999999046005	right	TRUE	87
ID316	csapattest	FALSE	-1.301	1.9992000002861232	right	TRUE	88
ID316	karnogó	TRUE	NA	3.439899999618546	left	TRUE	89
ID316	donhuán	FALSE	-2.472	3.0667000002861187	right	TRUE	91
ID316	adszorbens	FALSE	-1.303	3.297400000095365	right	TRUE	92
ID316	lélek	FALSE	1.694	1.63269999980929	right	TRUE	93
ID316	árus	FALSE	-0.422	1.4674000000953242	right	TRUE	94
ID316	storítő	TRUE	NA	4.768199999809269	left	TRUE	95
ID316	szegény	FALSE	1.681	1.4661999998093052	right	TRUE	96
ID316	úszamos	TRUE	NA	3.564400000095361	left	TRUE	97
ID316	újgazdag	FALSE	-0.337	1.5354000000953647	right	TRUE	98
ID316	időszak	FALSE	1.939	1.3001999998093083	right	TRUE	99
ID316	móringol	FALSE	-2.967	1.6145999999046126	right	TRUE	100
ID316	szelégül	TRUE	NA	3.2369999999999663	left	TRUE	101
ID316	nyersarany	FALSE	-2.548	2.016699999809248	right	TRUE	102
ID316	aragas	TRUE	NA	2.802500000000009	left	TRUE	103
ID316	piláf	FALSE	-1.262	1.866799999713919	right	TRUE	104
ID316	színpad	FALSE	1.058	1.385499999999979	right	TRUE	105
ID316	reagál	FALSE	1.189	1.3822999997138936	right	TRUE	106
ID316	vonzum	TRUE	NA	2.233099999904653	left	TRUE	107
ID316	irány	FALSE	1.373	1.385500000000036	right	TRUE	108
ID316	heveny	FALSE	0.516	1.3411999998092483	right	TRUE	109
ID316	iszlám	FALSE	1.246	1.4525000000000432	right	TRUE	110
ID316	hatalom	FALSE	1.658	1.284800000190728	right	TRUE	111
ID316	lejmol	FALSE	-2.031	2.2355999999045935	right	TRUE	112
ID316	csapdáz	FALSE	-3.268	2.06899999999996	right	TRUE	113
ID316	fürkész	FALSE	-0.829	1.3656000003814484	right	TRUE	114
ID316	lépték	FALSE	0.16	1.539700000286132	right	TRUE	115
ID316	glükóz	FALSE	0.41	1.6905999999046344	right	TRUE	116
ID316	igény	FALSE	1.885	1.4724000000953763	right	TRUE	117
ID316	vésségi	TRUE	NA	3.5888000001907585	left	TRUE	118
ID316	gyapot	FALSE	-0.198	1.584700000286091	right	TRUE	119
ID316	töredék	FALSE	0.316	2.072099999904651	right	TRUE	120
ID316	csatázik	FALSE	-0.489	1.6005999999046026	right	TRUE	121
ID316	kárpit	FALSE	0.194	1.538000000000011	right	TRUE	122
ID316	cséltás	TRUE	NA	4.901900000095395	left	TRUE	124
ID316	luftballon	FALSE	-1.821	1.616400000095382	right	TRUE	125
ID316	rakódik	FALSE	0.094	1.6206000003815006	right	TRUE	126
ID316	olaj	FALSE	1.54	1.218500000000006	right	TRUE	127
ID316	kurtít	FALSE	-2.237	1.3523999996185123	right	TRUE	128
ID316	kilukát	TRUE	NA	3.298600000381498	left	TRUE	129
ID316	nárcisz	FALSE	-0.25	1.618199999809292	right	TRUE	130
ID316	kosi	TRUE	NA	2.4834999999999923	left	TRUE	131
ID316	vároló	TRUE	NA	2.43279999971395	left	TRUE	132
ID316	darab	FALSE	2.044	1.499699999809252	right	TRUE	133
ID316	pohár	FALSE	1.388	1.253499999999974	right	TRUE	134
ID316	rotor	FALSE	-0.054	1.433699999809278	right	TRUE	135
ID316	gazdag	FALSE	1.977	1.2346999998092656	right	TRUE	136
ID316	komoly	FALSE	2.29	1.1835999999046294	right	TRUE	137
ID316	sárgaréz	FALSE	-0.031	1.5068000001907649	right	TRUE	139
ID316	szimboló	TRUE	NA	2.7528000001908026	left	TRUE	140
ID316	egant	TRUE	NA	2.766900000095347	left	TRUE	141
ID316	mihálóz	TRUE	NA	2.881999999999948	left	TRUE	142
ID316	megpadék	TRUE	NA	2.3826999998092333	left	TRUE	143
ID316	bélyeg	FALSE	0.274	1.150599999904557	right	TRUE	144
ID316	káder	FALSE	-0.593	1.2841999998092888	right	TRUE	145
ID316	jármű	FALSE	1.595	1.2161999998093052	right	TRUE	146
ID316	lalláz	FALSE	-3.268	3.303400000095394	right	TRUE	147
ID316	bajuszfű	FALSE	-2.967	3.723099999904548	right	TRUE	148
ID316	kulcscsont	FALSE	-0.536	2.4825000000000728	right	TRUE	149
ID316	százalék	FALSE	1.899	0.1518000001907467	right	TRUE	150
ID316	karakter	FALSE	1.43	1.5014000000953729	right	TRUE	151
ID316	pentez	TRUE	NA	1.8034999999999857	left	TRUE	152
ID316	kettősfém	FALSE	-2.756	1.8730000000000473	right	TRUE	153
ID316	ószeven	TRUE	NA	3.0534999999999854	left	TRUE	154
ID316	anorák	FALSE	-1.335	1.3078000001906958	right	TRUE	155
ID316	puritán	FALSE	0.459	1.268000000000029	right	TRUE	156
ID316	ifjít	FALSE	-3.092	1.838799999713956	right	TRUE	157
ID316	hidegház	FALSE	-2.509	1.7360999999045816	right	TRUE	158
ID316	alkalom	FALSE	1.587	1.4329999999999927	right	TRUE	159
ID316	retta	TRUE	NA	1.6000000000000227	left	TRUE	160
ID316	takorák	TRUE	NA	2.5145999999047035	left	TRUE	162
ID316	retálhit	TRUE	NA	3.1839000000953774	left	TRUE	163
ID316	lakotthely	FALSE	-2.472	1.6504000000953738	right	TRUE	164
ID316	ellenfél	FALSE	1.362	1.3070000000000164	right	TRUE	165
ID316	sporthorgász	FALSE	-0.907	1.7316999998092797	right	TRUE	166
ID316	csenyei	TRUE	NA	2.499699999809195	left	TRUE	167
ID316	farkasbab	FALSE	-2.154	2.6301999998091787	right	TRUE	168
ID316	abeti	TRUE	NA	1.4900999999046007	left	TRUE	170
ID316	csontdarab	FALSE	-1.165	9.928499999999984	right	TRUE	171
ID316	mítosz	FALSE	0.619	1.6833000001907976	right	TRUE	172
ID316	zomogyi	TRUE	NA	2.1015999999046926	left	TRUE	173
ID316	biliárd	FALSE	-0.011	1.6228999996184257	right	TRUE	174
ID316	kocskesi	TRUE	NA	3.2528000001907458	left	TRUE	175
ID316	tarol	FALSE	-0.219	1.2709000000953663	right	TRUE	176
ID316	ion	FALSE	0.155	1.733900000095332	right	TRUE	178
ID316	tröshet	TRUE	NA	2.5505999999045343	left	TRUE	179
ID316	balközép	FALSE	-0.179	1.4840000000000373	right	TRUE	180
ID316	cugehőr	FALSE	-2.916	5.445400000095333	right	TRUE	181
ID316	bárányfark	FALSE	-3.092	2.298399999618482	right	TRUE	182
ID316	méhezter	TRUE	NA	2.746499999999969	left	TRUE	183
ID316	turné	FALSE	0.819	1.4000999999046826	right	TRUE	184
ID316	lukaszt	FALSE	-2.591	1.6328999996185305	right	TRUE	185
ID316	tajtásos	TRUE	NA	4.2150999999046235	left	TRUE	186
ID316	gyűjtemény	FALSE	1.112	1.1674999999999045	right	TRUE	187
ID316	tököl	FALSE	-1.12	1.6836000003814888	right	TRUE	188
ID316	kalcium	FALSE	1.004	1.3659000000953938	right	TRUE	189
ID316	viszkóz	FALSE	-0.61	1.3667000002860732	right	TRUE	190
ID316	délceg	FALSE	-0.228	1.1164000000952683	right	TRUE	191
ID316	referál	FALSE	-0.432	1.3829999999999243	right	TRUE	192
ID316	parkkói	TRUE	NA	3.765599999904566	left	TRUE	193
ID316	kunyai	TRUE	NA	2.1660999999046453	left	TRUE	195
ID316	szabotró	TRUE	NA	3.081299999713906	left	TRUE	197
ID316	tenger	FALSE	1.456	1.765900000095371	right	TRUE	198
ID316	sziszeg	FALSE	-0.745	1.5501999998092515	right	TRUE	199
ID316	orális	FALSE	0.569	1.3504000000953056	right	TRUE	200
ID316	vetézmés	TRUE	NA	3.650599999904557	left	TRUE	201
ID316	püffeszt	FALSE	-3.87	1.4683999996185548	right	TRUE	202
ID316	gyülemlik	FALSE	-1.145	3.030600000381469	right	TRUE	203
ID316	forgórész	FALSE	-0.244	1.6995000000000573	right	TRUE	204
ID316	novagár	TRUE	NA	1.9510000000000216	left	TRUE	205
ID316	kislány	FALSE	1.415	1.2503999996184805	right	TRUE	206
ID316	beton	FALSE	1.056	1.123700000286135	right	TRUE	207
ID316	rozintem	TRUE	NA	3.2688000001907085	left	TRUE	208
ID316	közhely	FALSE	0.426	1.2330999999046526	right	TRUE	209
ID316	forrpont	FALSE	-1.542	1.3983000001907158	right	TRUE	210
ID316	lazúroz	FALSE	-3.569	2.74899999999991	right	TRUE	211
ID316	tábornagy	FALSE	-0.321	2.218899999618543	right	TRUE	212
ID316	szokik	FALSE	-0.316	1.4906999998092942	right	TRUE	213
ID316	változik	FALSE	1.765	1.2236999998092415	right	TRUE	214
ID316	konverzál	FALSE	-2.967	4.548300000190807	right	TRUE	215
ID316	kitin	FALSE	-0.946	1.719800000190844	right	TRUE	218
ID316	horizont	FALSE	0.296	1.4328000001906958	right	TRUE	219
ID316	pereg	FALSE	0.061	1.150700000286065	right	TRUE	220
ID316	derít	FALSE	0.012	1.2505999999045798	right	TRUE	221
ID316	örmény	FALSE	0.795	1.2854000000953647	right	TRUE	223
ID316	lemesség	TRUE	NA	1.8824999999999363	left	TRUE	224
ID316	bolgár	FALSE	1.03	1.1331999998093352	right	TRUE	225
ID316	selypít	FALSE	-1.452	2.383000000000038	right	TRUE	227
ID316	nagyszámú	FALSE	0.902	2.0004000000953965	right	TRUE	229
ID316	templomoz	FALSE	-3.092	1.6156000003815052	right	TRUE	230
ID316	hübrisz	FALSE	-0.863	5.3990999999045926	right	TRUE	231
ID316	szilikát	FALSE	-0.363	1.8490999999045243	right	TRUE	232
ID316	tangózik	FALSE	-1.78	1.432900000095401	right	TRUE	233
ID316	ausztrál	FALSE	1.198	1.4332000002860923	right	TRUE	234
ID316	reform	FALSE	0.936	1.349900000095431	right	TRUE	235
ID316	csengettyű	FALSE	-0.622	1.5659000000954393	right	TRUE	236
ID316	űrlap	FALSE	1.015	1.4839999999999236	right	TRUE	237
ID316	vényegő	TRUE	NA	1.7184000000953574	left	TRUE	238
ID316	régész	FALSE	0.538	3.81520000028604	right	TRUE	240
ID316	csüggeszt	FALSE	-1.753	1.6018000001907922	right	TRUE	241
ID316	század	FALSE	2.036	1.3713000001907858	right	TRUE	243
ID316	kanalaz	FALSE	-1.325	1.466699999809293	right	TRUE	244
ID316	diktátor	FALSE	0.599	1.4383000001906794	right	TRUE	246
ID316	kötődik	FALSE	1.137	1.5670999999047126	right	TRUE	247
ID316	csüggedez	FALSE	-2.756	2.134199999809198	right	TRUE	248
ID316	keresztény	FALSE	1.817	1.2373000001907712	right	TRUE	249
ID318	csüggeszt	FALSE	-1.753	4.698300000190727	left	FALSE	32
ID318	tangózik	FALSE	-1.78	3.531099999427738	right	TRUE	99
ID318	turné	FALSE	0.819	2.014499999999998	right	TRUE	215
ID318	referál	FALSE	-0.432	2.207399999618474	right	TRUE	231
ID318	csüggedez	FALSE	-2.756	14.536599999427809	left	FALSE	29
ID318	szalicil	FALSE	-0.79	2.2507999992370173	right	TRUE	67
ID318	szokik	FALSE	-0.316	1.132400000572261	right	TRUE	194
ID318	viszkóz	FALSE	-0.61	1.7648999996184784	right	TRUE	206
ID318	arzénsav	FALSE	-2.408	6.231600000381491	right	TRUE	24
ID318	ion	FALSE	0.155	2.503500000000031	left	FALSE	93
ID318	bolgár	FALSE	1.03	1.7281999998093625	right	TRUE	162
ID318	skubizik	FALSE	-3.171	3.5981000003814643	right	TRUE	25
ID318	gerencsér	FALSE	-1.63	9.793699999809178	right	TRUE	109
ID318	svábtök	FALSE	-3.87	4.47730000019078	left	FALSE	178
ID318	komál	FALSE	-2.031	3.554800000190653	right	TRUE	243
ID318	koenzim	FALSE	0.003	9.466199999809264	left	FALSE	7
ID318	rücsök	FALSE	-1.879	5.13289999961853	right	TRUE	37
ID318	lakotthely	FALSE	-2.472	3.3176000003814465	right	TRUE	54
ID318	anorák	FALSE	-1.335	2.5219999999999914	right	TRUE	58
ID318	kurtít	FALSE	-2.237	1.3490999994278354	right	TRUE	128
ID318	genom	FALSE	0.016	3.145400000572181	left	FALSE	135
ID318	bárányfark	FALSE	-3.092	3.9776999998092606	right	TRUE	221
ID318	csapattest	FALSE	-1.301	2.3015000000000327	right	TRUE	236
ID318	konverzál	FALSE	-2.967	0.8845000000000027	right	TRUE	124
ID318	neoprén	FALSE	-0.057	4.911300000190749	left	FALSE	161
ID318	farkasbab	FALSE	-2.154	5.298400000572201	left	FALSE	217
ID318	árstop	FALSE	-2.365	1.0671000003816289	right	TRUE	230
ID318	dádá	FALSE	-1.428	3.947800000190739	right	TRUE	43
ID318	pauzál	FALSE	-3.092	10.888399999618514	left	FALSE	137
ID318	törköly	FALSE	-0.572	1.763800000190713	right	TRUE	169
ID318	fertilis	FALSE	-1.185	2.5298000001907894	left	FALSE	213
ID318	alfél	FALSE	-2.365	3.5701000003814443	right	TRUE	98
ID318	rotor	FALSE	-0.054	3.042300000190721	right	TRUE	173
ID318	kencéz	FALSE	-3.569	3.6021999998092724	left	FALSE	191
ID318	fajansz	FALSE	-0.829	1.1828999996184848	right	TRUE	232
ID318	lazúroz	FALSE	-3.569	8.780800000190709	left	FALSE	11
ID318	donhuán	FALSE	-2.472	7.245499999999993	right	TRUE	18
ID318	kúpol	FALSE	-1.906	5.363000000000056	right	TRUE	212
ID318	bizmut	FALSE	-0.988	1.863699999809228	right	TRUE	219
ID318	lejmol	FALSE	-2.031	1.9464000005722255	right	TRUE	49
ID318	bajuszfű	FALSE	-2.967	4.579400000572207	left	FALSE	63
ID318	templomoz	FALSE	-3.092	2.4944999999999027	right	TRUE	187
ID318	káder	FALSE	-0.593	1.8840999994278036	right	TRUE	222
ID318	ingváll	FALSE	-1.276	7.609300000190728	right	TRUE	108
ID318	kurzív	FALSE	-0.736	4.247100000381465	left	FALSE	141
ID318	türemlik	FALSE	-2.393	1.531700000762953	right	TRUE	147
ID318	dipeptid	FALSE	-1.46	2.8771999998092497	left	FALSE	197
ID318	forrpont	FALSE	-1.542	15.525800000190712	right	TRUE	82
ID318	áradmány	FALSE	-2.64	13.854300000190731	left	FALSE	114
ID318	cianid	FALSE	-0.711	1.830000000000041	right	TRUE	225
ID318	rámáz	FALSE	-3.171	1.8964000005721573	right	TRUE	229
ID318	libling	FALSE	-1.946	4.713499999999954	right	TRUE	64
ID318	glosszáz	FALSE	-3.569	10.825000000000044	right	TRUE	78
ID318	magmatit	FALSE	-2.666	5.8656000003813915	left	FALSE	143
ID318	viszonvád	FALSE	-2.163	4.561400000572235	right	TRUE	188
ID318	adszorbens	FALSE	-1.303	6.147600000381431	right	TRUE	130
ID318	hübrisz	FALSE	-0.863	3.9434000005721823	left	FALSE	168
ID318	kollapszus	FALSE	-1.065	2.8461999998093006	left	FALSE	198
ID318	ifjít	FALSE	-3.092	3.097800000190773	right	TRUE	237
ID318	kvéker	FALSE	-1.672	5.079899999618533	left	FALSE	26
ID318	bajadér	FALSE	-1.417	2.9610000000000127	right	TRUE	39
ID318	mimézis	FALSE	-1.054	3.6297000007629094	left	FALSE	92
ID318	truccol	FALSE	-2.694	2.6402999992369587	right	TRUE	167
ID318	petél	FALSE	-3.092	6.443900000572199	left	FALSE	15
ID318	rekvizit	FALSE	-1.973	2.132100000381456	right	TRUE	46
ID318	kontrapunkt	FALSE	-1.743	5.425899999618537	left	FALSE	202
ID318	orront	FALSE	-2.057	4.673199999809185	right	TRUE	239
ID318	infimum	FALSE	-2.339	7.414600000381483	left	FALSE	51
ID318	kurzivál	FALSE	-3.092	11.041399999618534	left	FALSE	107
ID318	döföl	FALSE	-2.724	16.251100000381484	right	TRUE	227
ID318	aggófű	FALSE	-1.365	1.500800000190793	right	TRUE	247
ID318	lalláz	FALSE	-3.268	6.627699999809238	right	TRUE	42
ID318	cugehőr	FALSE	-2.916	4.699400000572211	right	TRUE	47
ID318	móringol	FALSE	-2.967	5.811899999618561	left	FALSE	77
ID318	piláf	FALSE	-1.262	2.083699999809369	right	TRUE	245
ID318	krakéler	FALSE	-1.411	2.698099999427768	right	TRUE	84
ID318	vabank	FALSE	-2.247	4.830300000190732	left	FALSE	120
ID318	diviz	FALSE	-2.569	5.141499999999951	right	TRUE	150
ID318	diffamál	FALSE	-3.393	2.984499999999912	left	FALSE	165
ID318	lágyék	FALSE	-0.685	3.1029999999999944	right	TRUE	1
ID318	novagár	TRUE	NA	5.005099999427799	left	TRUE	2
ID318	zomogyi	TRUE	NA	4.6196999998092565	left	TRUE	3
ID318	méhezter	TRUE	NA	7.212199999809258	left	TRUE	4
ID318	profit	FALSE	0.862	2.5989000005722005	right	TRUE	5
ID318	orális	FALSE	0.569	2.4548000001907297	right	TRUE	6
ID318	parkkói	TRUE	NA	9.001800000190727	left	TRUE	8
ID318	példakép	FALSE	0.329	2.567799999237053	right	TRUE	9
ID318	diktátor	FALSE	0.599	2.265100000381466	right	TRUE	10
ID318	csenyei	TRUE	NA	6.478699999809265	left	TRUE	12
ID318	megpadék	TRUE	NA	9.846499999999992	left	TRUE	13
ID318	grafikon	FALSE	0.471	2.600500000000011	right	TRUE	14
ID318	iszlám	FALSE	1.246	2.280800000190738	right	TRUE	16
ID318	rejtőzik	FALSE	0.612	2.1599999999999966	right	TRUE	17
ID318	dolgozik	FALSE	1.948	2.2319999999999993	right	TRUE	19
ID318	hidroxid	FALSE	-0.536	2.45560000038148	right	TRUE	20
ID318	olaj	FALSE	1.54	1.6221000003814652	right	TRUE	21
ID318	szilikát	FALSE	-0.363	2.102199999809244	right	TRUE	22
ID318	csontdarab	FALSE	-1.165	2.6981000003814586	right	TRUE	23
ID318	hatalom	FALSE	1.658	2.4650000000000034	right	TRUE	27
ID318	hálózsák	FALSE	-0.037	1.731999999999999	right	TRUE	28
ID318	tröshet	TRUE	NA	4.453600000381471	left	TRUE	30
ID318	népszerű	FALSE	1.814	1.9683000001907376	right	TRUE	31
ID318	ausztrál	FALSE	1.198	2.839599999427776	right	TRUE	33
ID318	ellenfél	FALSE	1.362	1.6191000003814793	right	TRUE	34
ID318	újgazdag	FALSE	-0.337	1.6655999994277977	right	TRUE	35
ID318	vetézmés	TRUE	NA	6.135600000381487	left	TRUE	36
ID318	sziszeg	FALSE	-0.745	2.589499999999987	right	TRUE	38
ID318	glükóz	FALSE	0.41	2.3152000007629567	right	TRUE	40
ID318	kocskesi	TRUE	NA	7.976599999427833	left	TRUE	41
ID318	régész	FALSE	0.538	2.3494999999999777	right	TRUE	44
ID318	gyűjtemény	FALSE	1.112	2.007299999237034	right	TRUE	45
ID318	elegy	FALSE	-1.266	1.923799999237076	right	TRUE	48
ID318	lemesség	TRUE	NA	5.951900000572209	left	TRUE	50
ID318	rövid	FALSE	2.339	1.8969000005722023	right	TRUE	52
ID318	kelől	TRUE	NA	4.180499999999995	left	TRUE	53
ID318	konyrúd	TRUE	NA	4.9033999996185	left	TRUE	55
ID318	tajtásos	TRUE	NA	2.517300000190744	right	FALSE	56
ID318	norvend	TRUE	NA	4.136500000000012	left	TRUE	57
ID318	tortya	TRUE	NA	5.910900000572212	left	TRUE	59
ID318	kulcscsont	FALSE	-0.536	2.091200000762967	right	TRUE	60
ID318	örmény	FALSE	0.795	2.132100000381456	right	TRUE	61
ID318	tarol	FALSE	-0.219	1.490000000000009	right	TRUE	62
ID318	kilukát	TRUE	NA	5.245499999999993	left	TRUE	65
ID318	extuál	TRUE	NA	13.577300000190746	left	TRUE	66
ID318	végbél	FALSE	0.305	1.7329000005721582	right	TRUE	68
ID318	délceg	FALSE	-0.228	1.6703000001907071	right	TRUE	69
ID318	százalék	FALSE	1.899	2.04869999980923	right	TRUE	70
ID318	luftballon	FALSE	-1.821	2.1569999999999823	right	TRUE	71
ID318	balközép	FALSE	-0.179	2.0716999998092547	right	TRUE	72
ID318	összalaj	TRUE	NA	6.883399999618575	left	TRUE	73
ID318	derít	FALSE	0.012	1.6649999999999636	right	TRUE	74
ID318	gazdag	FALSE	1.977	1.416799999237071	right	TRUE	75
ID318	dohorpák	TRUE	NA	4.630499999999984	left	TRUE	76
ID318	szelégül	TRUE	NA	4.2620999994277895	left	TRUE	79
ID318	hider	TRUE	NA	2.270699999809267	left	TRUE	80
ID318	darab	FALSE	2.044	1.816199999809271	right	TRUE	81
ID318	pentez	TRUE	NA	3.200499999999977	left	TRUE	83
ID318	könnyelmű	FALSE	0.019	1.5226000003814877	right	TRUE	85
ID318	reform	FALSE	0.936	1.3497000007629367	right	TRUE	86
ID318	jegedény	TRUE	NA	8.048699999809287	left	TRUE	87
ID318	fürkész	FALSE	-0.829	1.9056000003814688	right	TRUE	88
ID318	bélyeg	FALSE	0.274	1.271299999237101	right	TRUE	89
ID318	lublika	TRUE	NA	5.7485000000000355	right	FALSE	90
ID318	tropikus	FALSE	-0.563	3.1677999992369905	right	TRUE	91
ID318	nukleon	FALSE	-1.266	7.110800000190807	right	TRUE	94
ID318	égitest	FALSE	0.434	1.6987999992370533	right	TRUE	95
ID318	storítő	TRUE	NA	6.967600000381481	left	TRUE	96
ID318	kötődik	FALSE	1.137	3.6370999994277327	right	TRUE	97
ID318	vároló	TRUE	NA	5.797199999809322	left	TRUE	100
ID318	abeti	TRUE	NA	3.1336000003814206	left	TRUE	101
ID318	igény	FALSE	1.885	1.8038000001906769	right	TRUE	102
ID318	bacon	FALSE	0.189	3.3319999999999936	right	TRUE	103
ID318	gyapot	FALSE	-0.198	1.5389000005721982	right	TRUE	104
ID318	reagál	FALSE	1.189	0.9388000001906676	right	TRUE	105
ID318	püffeszt	FALSE	-3.87	2.638800000190713	right	TRUE	106
ID318	karakter	FALSE	1.43	6.178399999618591	right	TRUE	110
ID318	mihálóz	TRUE	NA	3.913800000190804	left	TRUE	111
ID318	horizont	FALSE	0.296	1.8151999998093515	right	TRUE	112
ID318	aragas	TRUE	NA	2.364399999618513	left	TRUE	113
ID318	rozintem	TRUE	NA	5.1784999999999854	left	TRUE	115
ID318	irány	FALSE	1.373	3.301300000190736	right	TRUE	116
ID318	változik	FALSE	1.765	1.2000000000000457	right	TRUE	117
ID318	alkalom	FALSE	1.587	0.9003999996184575	right	TRUE	118
ID318	közhely	FALSE	0.426	0.9053999996185668	right	TRUE	119
ID318	biliárd	FALSE	-0.011	1.6875	right	TRUE	121
ID318	extrém	FALSE	1.384	1.0383999996184912	right	TRUE	122
ID318	nagyszámú	FALSE	0.902	1.618100000381446	right	TRUE	123
ID318	lépték	FALSE	0.16	1.3324000005721928	right	TRUE	125
ID318	csapdáz	FALSE	-3.268	2.4397999992370387	right	TRUE	126
ID318	komoly	FALSE	2.29	1	right	TRUE	127
ID318	sporthorgász	FALSE	-0.907	1.250899999618582	right	TRUE	129
ID318	kondenzcsík	FALSE	-1.009	2.426699999809216	right	TRUE	131
ID318	vényegő	TRUE	NA	3.2111999998093097	left	TRUE	132
ID318	barát	FALSE	1.221	1.6642000007630031	right	TRUE	133
ID318	árus	FALSE	-0.422	1.1294000005722182	right	TRUE	134
ID318	törődik	FALSE	0.7	1.83790000057229	right	TRUE	136
ID318	látszik	FALSE	2.055	1.6123999996185605	right	TRUE	138
ID318	gyülemlik	FALSE	-1.145	2.396199999809255	right	TRUE	139
ID318	piktogram	FALSE	-0.278	1.4842000007629397	right	TRUE	140
ID318	tábornagy	FALSE	-0.321	1.6620000000000346	right	TRUE	142
ID318	puritán	FALSE	0.459	1.7648000001906894	right	TRUE	144
ID318	szabotró	TRUE	NA	7.732300000190662	left	TRUE	145
ID318	csengettyű	FALSE	-0.622	1.7005000000000337	right	TRUE	146
ID318	retálhit	TRUE	NA	4.228200000762854	left	TRUE	148
ID318	űrlap	FALSE	1.015	1.8800999994277845	right	TRUE	149
ID318	hitódó	TRUE	NA	6.033199999809312	left	TRUE	151
ID318	kunyai	TRUE	NA	2.8511999998091824	left	TRUE	152
ID318	heveny	FALSE	0.516	1.9946999998093131	right	TRUE	153
ID318	kárpit	FALSE	0.194	1.3463000001906948	right	TRUE	154
ID318	ószeven	TRUE	NA	3.9184000005722055	left	TRUE	155
ID318	század	FALSE	2.036	1.2970000000000257	right	TRUE	156
ID318	törékeny	FALSE	0.894	1.4291999998092706	right	TRUE	157
ID318	sugár	FALSE	0.422	0.8316999998093024	right	TRUE	158
ID318	abszint	FALSE	-0.659	1.7800999994277618	right	TRUE	159
ID318	lukaszt	FALSE	-2.591	0.965300000190723	right	TRUE	160
ID318	takorák	TRUE	NA	2.24709999942786	left	TRUE	163
ID318	mítosz	FALSE	0.619	2.6505999994277545	right	TRUE	164
ID318	tenger	FALSE	1.456	1.4947999992369887	right	TRUE	166
ID318	sárgaréz	FALSE	-0.031	1.4838999996185294	right	TRUE	170
ID318	kalcium	FALSE	1.004	0.8203999996185303	right	TRUE	171
ID318	szempont	FALSE	1.61	0.9318999996185084	right	TRUE	172
ID318	eszköz	FALSE	1.983	1.100500000000011	right	TRUE	174
ID318	cséltás	TRUE	NA	9.173399999618596	left	TRUE	175
ID318	rojtoz	TRUE	NA	2.0959000005722146	left	TRUE	176
ID318	pereg	FALSE	0.061	1.796100000381557	right	TRUE	177
ID318	csatázik	FALSE	-0.489	1.729100000381436	right	TRUE	179
ID318	dolog	FALSE	2.387	1.294999999999959	right	TRUE	180
ID318	töredék	FALSE	0.316	1.5199000005721928	right	TRUE	181
ID318	hajlik	FALSE	0.575	0.8973999996185285	right	TRUE	182
ID318	gyásos	TRUE	NA	5.325899999618628	left	TRUE	183
ID318	nimbus	FALSE	-2.756	4.244799999236989	right	TRUE	184
ID318	rakódik	FALSE	0.094	1.7469000005721682	right	TRUE	185
ID318	keresztény	FALSE	1.817	0.9531000003814823	right	TRUE	186
ID318	tartalom	FALSE	1.71	6.13149999999996	right	TRUE	189
ID318	nyersarany	FALSE	-2.548	5.276800000190747	right	TRUE	190
ID318	úszamos	TRUE	NA	6.497699999809242	left	TRUE	192
ID318	jármű	FALSE	1.595	1.413600000381507	right	TRUE	193
ID318	testnedv	FALSE	-0.969	3.212100000381497	right	TRUE	195
ID318	retta	TRUE	NA	2.048399999618482	left	TRUE	196
ID318	vésségi	TRUE	NA	2.99609999942777	left	TRUE	199
ID318	kosi	TRUE	NA	4.268200000762931	left	TRUE	200
ID318	mellényzseb	FALSE	-1.973	2.478800000190745	right	TRUE	201
ID318	nárcisz	FALSE	-0.25	1.5825999994278843	right	TRUE	203
ID318	kitin	FALSE	-0.946	1.2156999998092033	right	TRUE	204
ID318	nagybeteg	FALSE	-0.276	1.8316999998093024	right	TRUE	205
ID318	beton	FALSE	1.056	1.1651000003814715	right	TRUE	207
ID318	lélek	FALSE	1.694	0.996800000190774	right	TRUE	208
ID318	komplex	FALSE	1.745	0.9639999999999418	right	TRUE	209
ID318	ernyak	TRUE	NA	4.427300000190712	left	TRUE	210
ID318	egant	TRUE	NA	2.1303000001906867	left	TRUE	211
ID318	vonzum	TRUE	NA	1.8841999998093115	left	TRUE	214
ID318	selypít	FALSE	-1.452	1.7643999996184905	right	TRUE	216
ID318	forgórész	FALSE	-0.244	3.8949000005721928	right	TRUE	218
ID318	színpad	FALSE	1.058	0.947100000381397	right	TRUE	220
ID318	kanalaz	FALSE	-1.325	1.3291000003814588	right	TRUE	223
ID318	pohár	FALSE	1.388	0.8144999999999527	right	TRUE	224
ID318	viszkózus	FALSE	-0.482	2.080200000762943	right	TRUE	226
ID318	karnogó	TRUE	NA	4.182700000762907	left	TRUE	228
ID318	szimboló	TRUE	NA	4.0803000001906184	left	TRUE	233
ID318	tömzsa	TRUE	NA	2.3182000007629995	left	TRUE	234
ID318	aurult	TRUE	NA	1.8685999994279427	left	TRUE	235
ID318	tököl	FALSE	-1.12	4.597199999809391	right	TRUE	238
ID318	transzplantál	FALSE	-3.092	6.926900000572232	right	TRUE	240
ID318	kislány	FALSE	1.415	1.0520000000001346	right	TRUE	241
ID318	kettősfém	FALSE	-2.756	1.8168999996184991	right	TRUE	242
ID318	ómagyar	FALSE	-0.441	0.9257000007630722	right	TRUE	244
ID318	szegény	FALSE	1.681	1.6523999996186376	right	TRUE	246
ID318	hidegház	FALSE	-2.509	4.728300000190757	right	TRUE	248
ID318	ború	FALSE	-0.485	1.3168999996187267	right	TRUE	249
ID318	időszak	FALSE	1.939	0.9506999998093306	right	TRUE	250
ID320	genom	FALSE	0.016	2.9981000003814984	left	FALSE	58
ID320	kurtít	FALSE	-2.237	2.7831999998093124	right	TRUE	103
ID320	csapattest	FALSE	-1.301	1.1990000000000125	right	TRUE	112
ID320	bárányfark	FALSE	-3.092	1.3668000001906648	right	TRUE	211
ID320	farkasbab	FALSE	-2.154	23.85530000019071	left	FALSE	6
ID320	konverzál	FALSE	-2.967	1.82239999961854	right	TRUE	33
ID320	neoprén	FALSE	-0.057	11.044599999427788	right	TRUE	42
ID320	árstop	FALSE	-2.365	1.3173000001908122	right	TRUE	125
ID320	pauzál	FALSE	-3.092	1.414800000190752	right	TRUE	44
ID320	törköly	FALSE	-0.572	1.3661000003814934	right	TRUE	101
ID320	fertilis	FALSE	-1.185	3.548099999427791	left	FALSE	169
ID320	dádá	FALSE	-1.428	1.6168999996185676	right	TRUE	201
ID320	dipeptid	FALSE	-1.46	2.6982999992369514	right	TRUE	122
ID320	türemlik	FALSE	-2.393	1.4253000001906455	right	TRUE	141
ID320	ingváll	FALSE	-1.276	1.849999999999909	right	TRUE	176
ID320	kurzív	FALSE	-0.736	6.144600000381502	left	FALSE	193
ID320	infimum	FALSE	-2.339	8.57680000019073	right	TRUE	5
ID320	aggófű	FALSE	-1.365	3.817599999427842	right	TRUE	104
ID320	döföl	FALSE	-2.724	0.9246999998092632	right	TRUE	158
ID320	kurzivál	FALSE	-3.092	9.592199999809282	left	FALSE	249
ID320	vabank	FALSE	-2.247	3.869800000190736	left	FALSE	9
ID320	krakéler	FALSE	-1.411	3.930499999999995	right	TRUE	51
ID320	diffamál	FALSE	-3.393	10.858300000190638	right	TRUE	194
ID320	diviz	FALSE	-2.569	1.9360000000000357	right	TRUE	202
ID320	rejtőzik	FALSE	0.612	2.416800000190733	right	TRUE	1
ID320	lélek	FALSE	1.694	1.5777999992370582	right	TRUE	2
ID320	megpadék	TRUE	NA	14.6035999994278	right	FALSE	3
ID320	százalék	FALSE	1.899	1.9251999998092657	right	TRUE	4
ID320	tábornagy	FALSE	-0.321	2.0149999999999864	right	TRUE	7
ID320	sárgaréz	FALSE	-0.031	1.6867000007629542	right	TRUE	8
ID320	szegény	FALSE	1.681	1.718500000000006	right	TRUE	10
ID320	ausztrál	FALSE	1.198	1.6169000005722012	right	TRUE	11
ID320	kettősfém	FALSE	-2.756	1.8884999999999936	right	TRUE	12
ID320	színpad	FALSE	1.058	1.1500000000000057	right	TRUE	13
ID320	kárpit	FALSE	0.194	1.359099999427798	right	TRUE	14
ID320	aragas	TRUE	NA	2.3695000000000164	right	FALSE	15
ID320	csüggeszt	FALSE	-1.753	1.6680000000000064	right	TRUE	16
ID320	pereg	FALSE	0.061	2.1331999998092783	right	TRUE	17
ID320	abszint	FALSE	-0.659	1.6084999999999925	right	TRUE	18
ID320	vároló	TRUE	NA	6.28619999980927	right	FALSE	19
ID320	népszerű	FALSE	1.814	1.5925999994277902	right	TRUE	20
ID320	példakép	FALSE	0.329	1.3564999999999827	right	TRUE	21
ID320	testnedv	FALSE	-0.969	1.3862999992370817	right	TRUE	22
ID320	biliárd	FALSE	-0.011	1.4331999998092613	right	TRUE	23
ID320	gyásos	TRUE	NA	4.929699999809259	right	FALSE	24
ID320	kilukát	TRUE	NA	4.313900000572204	left	TRUE	25
ID320	vésségi	TRUE	NA	3.3474000005722075	left	TRUE	26
ID320	gerencsér	FALSE	-1.63	2.415299999237078	right	TRUE	27
ID320	vetézmés	TRUE	NA	5.437100000381491	left	TRUE	28
ID320	dolgozik	FALSE	1.948	1.516400000572219	right	TRUE	29
ID320	szimboló	TRUE	NA	1.4665000000000248	right	FALSE	30
ID320	extuál	TRUE	NA	2.1328000001907412	right	FALSE	31
ID320	látszik	FALSE	2.055	1.4673000001907326	right	TRUE	32
ID320	űrlap	FALSE	1.015	1.338399999618531	right	TRUE	34
ID320	püffeszt	FALSE	-3.87	1.2671999998092645	right	TRUE	35
ID320	csenyei	TRUE	NA	3.2991000003814577	right	FALSE	36
ID320	viszkóz	FALSE	-0.61	2.204800000190744	right	TRUE	37
ID320	bizmut	FALSE	-0.988	1.2994999999999948	right	TRUE	38
ID320	donhuán	FALSE	-2.472	3.0180000000000007	right	TRUE	39
ID320	szokik	FALSE	-0.316	1.150900000572193	right	TRUE	40
ID320	tarol	FALSE	-0.219	1.1088000001907403	right	TRUE	41
ID320	bélyeg	FALSE	0.274	1.9211999998092608	right	TRUE	43
ID320	lejmol	FALSE	-2.031	2.6329000005722207	right	TRUE	45
ID320	lemesség	TRUE	NA	2.215800000190711	right	FALSE	46
ID320	komál	FALSE	-2.031	2.4493000001907035	right	TRUE	47
ID320	tröshet	TRUE	NA	5.096299999237033	left	TRUE	48
ID320	nagyszámú	FALSE	0.902	1.6659000005722078	right	TRUE	49
ID320	kocskesi	TRUE	NA	1.2069999999999936	right	FALSE	50
ID320	hajlik	FALSE	0.575	1.3001999998093083	right	TRUE	52
ID320	truccol	FALSE	-2.694	2.982699999809256	right	TRUE	53
ID320	kollapszus	FALSE	-1.065	20.384099999427804	right	TRUE	54
ID320	kanalaz	FALSE	-1.325	1.669800000190719	right	TRUE	55
ID320	lakotthely	FALSE	-2.472	2.0196999998092338	right	TRUE	56
ID320	turné	FALSE	0.819	2	right	TRUE	57
ID320	délceg	FALSE	-0.228	1.5513000001907358	right	TRUE	59
ID320	ellenfél	FALSE	1.362	0.919899999618508	right	TRUE	60
ID320	hübrisz	FALSE	-0.863	3.469599999427828	right	TRUE	61
ID320	kislány	FALSE	1.415	1.0004999999999882	right	TRUE	62
ID320	áradmány	FALSE	-2.64	5.06269999980924	right	TRUE	63
ID320	darab	FALSE	2.044	1.690600000381437	right	TRUE	64
ID320	transzplantál	FALSE	-3.092	2.165600000381517	right	TRUE	65
ID320	szalicil	FALSE	-0.79	2.7204999999999586	right	TRUE	66
ID320	kúpol	FALSE	-1.906	5.663499999999999	right	TRUE	67
ID320	selypít	FALSE	-1.452	2.1743999996185153	right	TRUE	68
ID320	időszak	FALSE	1.939	1.6888000001907244	right	TRUE	69
ID320	csapdáz	FALSE	-3.268	1.9835000000000491	right	TRUE	70
ID320	novagár	TRUE	NA	4.91320000076297	left	TRUE	71
ID320	retálhit	TRUE	NA	8.243599999427772	right	FALSE	72
ID320	takorák	TRUE	NA	6.344699999809279	left	TRUE	73
ID320	referál	FALSE	-0.432	2.3841999998092547	right	TRUE	74
ID320	gazdag	FALSE	1.977	0.82290000057219	right	TRUE	75
ID320	vonzum	TRUE	NA	2.5853999996185166	right	FALSE	76
ID320	glosszáz	FALSE	-3.569	5.498199999809287	right	TRUE	77
ID320	kvéker	FALSE	-1.672	6.4326000003815125	right	TRUE	78
ID320	összalaj	TRUE	NA	11.790699999809306	left	TRUE	79
ID320	század	FALSE	2.036	2.266899999618545	right	TRUE	80
ID320	extrém	FALSE	1.384	1.6338999996185066	right	TRUE	81
ID320	iszlám	FALSE	1.246	0.8849999999999909	right	TRUE	82
ID320	kosi	TRUE	NA	3.748699999809275	right	FALSE	83
ID320	orális	FALSE	0.569	1.9040999994277856	right	TRUE	84
ID320	árus	FALSE	-0.422	1.1000000000000227	right	TRUE	85
ID320	forgórész	FALSE	-0.244	1.8068000001907192	right	TRUE	86
ID320	rozintem	TRUE	NA	3.248999999999967	right	FALSE	87
ID320	örmény	FALSE	0.795	1.2066999998092456	right	TRUE	88
ID320	skubizik	FALSE	-3.171	3.931699999809268	right	TRUE	89
ID320	karakter	FALSE	1.43	1.683800000190729	right	TRUE	90
ID320	szabotró	TRUE	NA	2.2863999996184816	right	FALSE	91
ID320	csüggedez	FALSE	-2.756	1.9066999998092344	right	TRUE	92
ID320	mítosz	FALSE	0.619	1.5994999999999775	right	TRUE	93
ID320	svábtök	FALSE	-3.87	2.7661999998092597	right	TRUE	94
ID320	storítő	TRUE	NA	3.780699999809258	left	TRUE	95
ID320	cugehőr	FALSE	-2.916	2.614399999618513	right	TRUE	96
ID320	kondenzcsík	FALSE	-1.009	2.4981999998092874	right	TRUE	97
ID320	egant	TRUE	NA	9.346900000572193	right	FALSE	98
ID320	gyülemlik	FALSE	-1.145	2.364800000190769	right	TRUE	99
ID320	kötődik	FALSE	1.137	1.0091000003814656	right	TRUE	100
ID320	csengettyű	FALSE	-0.622	1.1224000005722132	right	TRUE	102
ID320	komplex	FALSE	1.745	1.017700000762943	right	TRUE	105
ID320	változik	FALSE	1.765	0.9563000001907084	right	TRUE	106
ID320	fürkész	FALSE	-0.829	1.367999999999995	right	TRUE	107
ID320	derít	FALSE	0.012	1.1997000007629597	right	TRUE	108
ID320	dohorpák	TRUE	NA	10.841399999618488	left	TRUE	109
ID320	profit	FALSE	0.862	1.5685999994278177	right	TRUE	110
ID320	szelégül	TRUE	NA	1.4501999998092288	right	FALSE	111
ID320	lépték	FALSE	0.16	0.934400000572225	right	TRUE	113
ID320	hidroxid	FALSE	-0.536	1.6853999996185394	right	TRUE	114
ID320	újgazdag	FALSE	-0.337	1.137800000190737	right	TRUE	115
ID320	vényegő	TRUE	NA	2.0501999998093083	right	FALSE	116
ID320	végbél	FALSE	0.305	1.1676000003814124	right	TRUE	117
ID320	beton	FALSE	1.056	0.8164000005722301	right	TRUE	118
ID320	bajadér	FALSE	-1.417	1.1493999996185948	right	TRUE	119
ID320	jármű	FALSE	1.595	0.9158999996185456	right	TRUE	120
ID320	alfél	FALSE	-2.365	1.4166999998093388	right	TRUE	121
ID320	templomoz	FALSE	-3.092	1.921100000381557	right	TRUE	123
ID320	sziszeg	FALSE	-0.745	1.524200000762903	right	TRUE	124
ID320	törékeny	FALSE	0.894	0.8191000003814679	right	TRUE	126
ID320	rámáz	FALSE	-3.171	1.1515000000000557	right	TRUE	127
ID320	lazúroz	FALSE	-3.569	3.1371999998092406	right	TRUE	128
ID320	közhely	FALSE	0.426	1.0841000003814545	right	TRUE	129
ID320	káder	FALSE	-0.593	0.972399999618574	right	TRUE	130
ID320	hidegház	FALSE	-2.509	1.205600000381537	right	TRUE	131
ID320	aurult	TRUE	NA	3.2340999994277126	right	FALSE	132
ID320	nukleon	FALSE	-1.266	4.419799999237057	right	TRUE	133
ID320	parkkói	TRUE	NA	21.914499999999975	left	TRUE	134
ID320	magmatit	FALSE	-2.666	3.649800000190794	right	TRUE	135
ID320	bajuszfű	FALSE	-2.967	1.2551000003815034	right	TRUE	136
ID320	lukaszt	FALSE	-2.591	1.191000000000031	right	TRUE	137
ID320	diktátor	FALSE	0.599	1.3704000005722037	right	TRUE	138
ID320	elegy	FALSE	-1.266	0.8172999992369796	right	TRUE	139
ID320	gyapot	FALSE	-0.198	1.1671999998092133	right	TRUE	140
ID320	ómagyar	FALSE	-0.441	1.500099999427789	right	TRUE	142
ID320	fajansz	FALSE	-0.829	1.1928999996184757	right	TRUE	143
ID320	barát	FALSE	1.221	0.9339999999999692	right	TRUE	144
ID320	úszamos	TRUE	NA	0.9513999996186158	right	FALSE	145
ID320	lágyék	FALSE	-0.685	1.1507000007628676	right	TRUE	146
ID320	mimézis	FALSE	-1.054	3.962800000190782	right	TRUE	147
ID320	bolgár	FALSE	1.03	0.8831999998093352	right	TRUE	148
ID320	arzénsav	FALSE	-2.408	1.9494999999999436	right	TRUE	149
ID320	tropikus	FALSE	-0.563	1.483300000190752	right	TRUE	150
ID320	tenger	FALSE	1.456	0.888700000762924	right	TRUE	151
ID320	horizont	FALSE	0.296	1.018100000381537	right	TRUE	152
ID320	cianid	FALSE	-0.711	2.183100000381387	right	TRUE	153
ID320	glükóz	FALSE	0.41	1.569099999427749	right	TRUE	154
ID320	rakódik	FALSE	0.094	2.91700000000003	right	TRUE	155
ID320	égitest	FALSE	0.434	0.8430999994278636	right	TRUE	156
ID320	gyűjtemény	FALSE	1.112	0.8831000003814324	right	TRUE	157
ID320	kontrapunkt	FALSE	-1.743	7.50390000057223	right	TRUE	159
ID320	komoly	FALSE	2.29	0.8449000005721246	right	TRUE	160
ID320	abeti	TRUE	NA	4.248000000000047	left	TRUE	161
ID320	ernyak	TRUE	NA	5.324400000572268	right	FALSE	162
ID320	konyrúd	TRUE	NA	7.1123000001906576	left	TRUE	163
ID320	ion	FALSE	0.155	2.0720000000000027	right	TRUE	164
ID320	reform	FALSE	0.936	0.8723000001907621	right	TRUE	165
ID320	móringol	FALSE	-2.967	2.023499999999899	right	TRUE	166
ID320	grafikon	FALSE	0.471	1.253700000762933	right	TRUE	167
ID320	méhezter	TRUE	NA	5.830199999809224	right	FALSE	168
ID320	sugár	FALSE	0.422	1.0399999999999636	right	TRUE	170
ID320	tököl	FALSE	-1.12	0.9688000001906404	right	TRUE	171
ID320	keresztény	FALSE	1.817	0.8381999998092624	right	TRUE	172
ID320	irány	FALSE	1.373	0.9223999996185056	right	TRUE	173
ID320	nagybeteg	FALSE	-0.276	1.0011000003814845	right	TRUE	174
ID320	rücsök	FALSE	-1.879	1.5168999996185448	right	TRUE	175
ID320	jegedény	TRUE	NA	2.1236999998092188	right	FALSE	177
ID320	balközép	FALSE	-0.179	1.1673000001907212	right	TRUE	178
ID320	viszkózus	FALSE	-0.482	1.4568000001906969	right	TRUE	179
ID320	ószeven	TRUE	NA	8.510599999427882	left	TRUE	180
ID320	hitódó	TRUE	NA	9.410499999999956	left	TRUE	181
ID320	igény	FALSE	1.885	1.1488000001908176	right	TRUE	182
ID320	töredék	FALSE	0.316	0.8722000007629731	right	TRUE	183
ID320	szilikát	FALSE	-0.363	1.4518000001907012	right	TRUE	184
ID320	rövid	FALSE	2.339	0.7666999998093615	right	TRUE	185
ID320	lalláz	FALSE	-3.268	3.603900000572139	right	TRUE	186
ID320	lublika	TRUE	NA	2.0668000001907103	right	FALSE	187
ID320	alkalom	FALSE	1.587	0.8060999994278291	right	TRUE	188
ID320	zomogyi	TRUE	NA	2.784600000381488	right	FALSE	189
ID320	norvend	TRUE	NA	8.344000000000051	left	TRUE	190
ID320	kencéz	FALSE	-3.569	4.744300000190719	right	TRUE	191
ID320	pentez	TRUE	NA	3.726099999427788	right	FALSE	192
ID320	mellényzseb	FALSE	-1.973	1.558499999999981	right	TRUE	195
ID320	csatázik	FALSE	-0.489	0.8508000001907021	right	TRUE	196
ID320	hálózsák	FALSE	-0.037	1.6988999996185612	right	TRUE	197
ID320	piktogram	FALSE	-0.278	2.034699999809277	right	TRUE	198
ID320	retta	TRUE	NA	3.9353000001907503	left	TRUE	199
ID320	tajtásos	TRUE	NA	5.379000000000019	left	TRUE	200
ID320	rojtoz	TRUE	NA	2.590200000762934	right	FALSE	203
ID320	forrpont	FALSE	-1.542	1.336699999809298	right	TRUE	204
ID320	ifjít	FALSE	-3.092	0.9658999996185004	right	TRUE	205
ID320	koenzim	FALSE	0.003	2.3346000003814424	right	TRUE	206
ID320	anorák	FALSE	-1.335	1.277800000190723	right	TRUE	207
ID320	tartalom	FALSE	1.71	0.9838999996185294	right	TRUE	208
ID320	hatalom	FALSE	1.658	1.1805999994277272	right	TRUE	209
ID320	kunyai	TRUE	NA	1.5438999996184748	right	FALSE	210
ID320	bacon	FALSE	0.189	2.281199999809246	right	TRUE	212
ID320	rotor	FALSE	-0.054	1.6988000001907722	right	TRUE	213
ID320	törődik	FALSE	0.7	1.5435999994277836	right	TRUE	214
ID320	tortya	TRUE	NA	7.022099999427724	right	FALSE	215
ID320	hider	TRUE	NA	6.575199999809229	right	FALSE	216
ID320	könnyelmű	FALSE	0.019	0.9636999998092506	right	TRUE	217
ID320	dolog	FALSE	2.387	0.8673000001907667	right	TRUE	218
ID320	tömzsa	TRUE	NA	1.083899999618552	right	FALSE	219
ID320	kitin	FALSE	-0.946	1.3951000003814895	right	TRUE	220
ID320	nimbus	FALSE	-2.756	1.2442000007629304	right	TRUE	221
ID320	reagál	FALSE	1.189	1.499600000381406	right	TRUE	222
ID320	olaj	FALSE	1.54	0.7611000003814752	right	TRUE	223
ID320	csontdarab	FALSE	-1.165	1.1113999996184702	right	TRUE	224
ID320	kulcscsont	FALSE	-0.536	1.093699999809246	right	TRUE	225
ID320	kalcium	FALSE	1.004	2.395099999427771	right	TRUE	226
ID320	piláf	FALSE	-1.262	3.17560000038145	right	TRUE	227
ID320	heveny	FALSE	0.516	1.0113999996185612	right	TRUE	228
ID320	kelől	TRUE	NA	5.343999999999937	right	FALSE	229
ID320	régész	FALSE	0.538	0.8484000005722692	right	TRUE	230
ID320	adszorbens	FALSE	-1.303	6.440000000000055	right	TRUE	231
ID320	nyersarany	FALSE	-2.548	2.0331999998093124	right	TRUE	232
ID320	tangózik	FALSE	-1.78	0.8664999999999736	right	TRUE	233
ID320	viszonvád	FALSE	-2.163	3.132600000381558	right	TRUE	234
ID320	nárcisz	FALSE	-0.25	0.9180999994277954	right	TRUE	235
ID320	cséltás	TRUE	NA	0.9838999996185294	right	FALSE	236
ID320	sporthorgász	FALSE	-0.907	1.2343000001907285	right	TRUE	237
ID320	luftballon	FALSE	-1.821	1.3050000000000637	right	TRUE	238
ID320	szempont	FALSE	1.61	0.884699999809186	right	TRUE	239
ID320	mihálóz	TRUE	NA	1.322499999999991	right	FALSE	240
ID320	eszköz	FALSE	1.983	0.6870000000000118	right	TRUE	241
ID320	rekvizit	FALSE	-1.973	1.5661999998092142	right	TRUE	242
ID320	puritán	FALSE	0.459	1.149599999427778	right	TRUE	243
ID320	karnogó	TRUE	NA	7.77699999999993	left	TRUE	244
ID320	libling	FALSE	-1.946	1.4401999998093515	right	TRUE	245
ID320	orront	FALSE	-2.057	1.1996999998092406	right	TRUE	246
ID320	pohár	FALSE	1.388	0.8336000003814661	right	TRUE	247
ID320	ború	FALSE	-0.485	0.9663999996184884	right	TRUE	248
ID320	petél	FALSE	-3.092	1.684700000762973	right	TRUE	250
ID322	csapattest	FALSE	-1.301	2.5494999999999663	right	TRUE	132
ID322	genom	FALSE	0.016	1.6493999996184812	left	FALSE	170
ID322	kurtít	FALSE	-2.237	1.465599999427809	right	TRUE	219
ID322	bárányfark	FALSE	-3.092	2.0874999999999773	right	TRUE	237
ID322	pauzál	FALSE	-3.092	3.171999999999997	right	TRUE	32
ID322	törköly	FALSE	-0.572	1.8497000007629367	right	TRUE	53
ID322	fertilis	FALSE	-1.185	3.767699999809281	left	FALSE	100
ID322	dádá	FALSE	-1.428	1.2663999996185566	right	TRUE	210
ID322	alfél	FALSE	-2.365	5.683699999809278	left	FALSE	69
ID322	rotor	FALSE	-0.054	3.631400000572228	right	TRUE	106
ID322	kencéz	FALSE	-3.569	1.683300000190684	right	TRUE	180
ID322	fajansz	FALSE	-0.829	1.7074999999999818	right	TRUE	205
ID322	lazúroz	FALSE	-3.569	9.410900000572212	right	TRUE	34
ID322	donhuán	FALSE	-2.472	2.2547000007629094	right	TRUE	80
ID322	kúpol	FALSE	-1.906	1.6688000001907426	right	TRUE	91
ID322	bizmut	FALSE	-0.988	2.166599999427831	left	FALSE	207
ID322	áradmány	FALSE	-2.64	1.3742999992370528	right	TRUE	77
ID322	cianid	FALSE	-0.711	4.735899999618539	left	FALSE	90
ID322	rámáz	FALSE	-3.171	0.91700000000003	right	TRUE	94
ID322	forrpont	FALSE	-1.542	0.9729999999999565	right	TRUE	250
ID322	libling	FALSE	-1.946	1.6539999999999964	right	TRUE	12
ID322	viszonvád	FALSE	-2.163	2.666700000762944	right	TRUE	26
ID322	magmatit	FALSE	-2.666	3.5153000001907913	right	TRUE	139
ID322	glosszáz	FALSE	-3.569	3.399000000000001	left	FALSE	227
ID322	adszorbens	FALSE	-1.303	6.878100000381465	right	TRUE	27
ID322	kollapszus	FALSE	-1.065	3.198100000381487	left	FALSE	137
ID322	hübrisz	FALSE	-0.863	5.146399999618552	left	FALSE	142
ID322	ifjít	FALSE	-3.092	1.5684999999999718	right	TRUE	242
ID322	truccol	FALSE	-2.694	3.127899999618535	right	TRUE	2
ID322	bajadér	FALSE	-1.417	2.20169999980925	right	TRUE	36
ID322	kvéker	FALSE	-1.672	3.7311000003815025	left	FALSE	112
ID322	mimézis	FALSE	-1.054	2.806699999809325	right	TRUE	244
ID322	kontrapunkt	FALSE	-1.743	6.103400000572208	left	FALSE	14
ID322	rekvizit	FALSE	-1.973	6.395699999809267	left	FALSE	114
ID322	petél	FALSE	-3.092	1.0507999992370287	right	TRUE	181
ID322	orront	FALSE	-2.057	2.965800000190825	right	TRUE	226
ID322	döföl	FALSE	-2.724	6.023399999618533	right	TRUE	1
ID322	kurzivál	FALSE	-3.092	5.67330000019075	right	TRUE	105
ID322	infimum	FALSE	-2.339	3.8651000003814033	left	FALSE	149
ID322	aggófű	FALSE	-1.365	1.7522000007629686	right	TRUE	187
ID322	cugehőr	FALSE	-2.916	3.237000000000023	right	TRUE	102
ID322	móringol	FALSE	-2.967	3.153199999809317	left	FALSE	165
ID322	piláf	FALSE	-1.262	0.8568000001907876	right	TRUE	218
ID322	lalláz	FALSE	-3.268	2.8652999992369814	right	TRUE	248
ID322	vabank	FALSE	-2.247	4.982600000381467	left	FALSE	81
ID322	krakéler	FALSE	-1.411	2.6822000007629185	left	FALSE	179
ID322	diffamál	FALSE	-3.393	2.5884999999999536	left	FALSE	215
ID322	diviz	FALSE	-2.569	5.850399999618503	right	TRUE	240
ID322	neoprén	FALSE	-0.057	5.905300000190735	right	TRUE	3
ID322	százalék	FALSE	1.899	1.8347999992370632	right	TRUE	4
ID322	csengettyű	FALSE	-0.622	1.6346999998092713	right	TRUE	5
ID322	árstop	FALSE	-2.365	1.507600000381473	right	TRUE	6
ID322	jármű	FALSE	1.595	1.718999999999994	right	TRUE	7
ID322	bélyeg	FALSE	0.274	1.0328000001907327	right	TRUE	8
ID322	lágyék	FALSE	-0.685	1.2333000001907235	right	TRUE	9
ID322	eszköz	FALSE	1.983	1.0396000003814692	right	TRUE	10
ID322	kalcium	FALSE	1.004	1.200800000190739	right	TRUE	11
ID322	transzplantál	FALSE	-3.092	6.770600000381464	right	TRUE	13
ID322	kilukát	TRUE	NA	5.229300000190719	right	FALSE	15
ID322	testnedv	FALSE	-0.969	1.6663000001907164	right	TRUE	16
ID322	lépték	FALSE	0.16	1.1500000000000057	right	TRUE	17
ID322	dolog	FALSE	2.387	1.1656000003814595	right	TRUE	18
ID322	türemlik	FALSE	-2.393	2.917800000190738	right	TRUE	19
ID322	ószeven	TRUE	NA	5.483500000000021	left	TRUE	20
ID322	lélek	FALSE	1.694	1.2401999998092492	right	TRUE	21
ID322	példakép	FALSE	0.329	1.1172999992370762	right	TRUE	22
ID322	sugár	FALSE	0.422	0.9993999996185324	right	TRUE	23
ID322	darab	FALSE	2.044	0.916400000572196	right	TRUE	24
ID322	profit	FALSE	0.862	1.386599999427801	right	TRUE	25
ID322	konverzál	FALSE	-2.967	2.016899999618545	right	TRUE	28
ID322	űrlap	FALSE	1.015	1.1175000000000068	right	TRUE	29
ID322	vároló	TRUE	NA	1.8359000005721953	right	FALSE	30
ID322	kulcscsont	FALSE	-0.536	3.303199999809266	right	TRUE	31
ID322	kislány	FALSE	1.415	0.956899999618514	right	TRUE	33
ID322	vonzum	TRUE	NA	4.753399999618523	left	TRUE	35
ID322	nárcisz	FALSE	-0.25	1.4169999999999732	right	TRUE	37
ID322	csatázik	FALSE	-0.489	1.5670999994277963	right	TRUE	38
ID322	cséltás	TRUE	NA	4.297399999618534	left	TRUE	39
ID322	tartalom	FALSE	1.71	1.016699999809248	right	TRUE	40
ID322	szokik	FALSE	-0.316	1.2659999999999911	right	TRUE	41
ID322	gyásos	TRUE	NA	1.9162999992370828	right	FALSE	42
ID322	bajuszfű	FALSE	-2.967	2.3653000001907287	right	TRUE	43
ID322	tangózik	FALSE	-1.78	0.8849999999999909	right	TRUE	44
ID322	aragas	TRUE	NA	6.611899999618515	right	FALSE	45
ID322	extuál	TRUE	NA	3.1148999996185296	left	TRUE	46
ID322	kosi	TRUE	NA	7.4114000005722	right	FALSE	47
ID322	horizont	FALSE	0.296	1.4831000003814836	right	TRUE	48
ID322	fürkész	FALSE	-0.829	1.133499999999998	right	TRUE	49
ID322	sporthorgász	FALSE	-0.907	1.4159999999999968	right	TRUE	50
ID322	könnyelmű	FALSE	0.019	2.5320999994277997	right	TRUE	51
ID322	kelől	TRUE	NA	4.147300000190739	left	TRUE	52
ID322	sziszeg	FALSE	-0.745	1.2854999999999848	right	TRUE	54
ID322	gerencsér	FALSE	-1.63	1.4496999998092406	right	TRUE	55
ID322	norvend	TRUE	NA	4.1650000000000205	right	FALSE	56
ID322	vényegő	TRUE	NA	11.740300000190755	left	TRUE	57
ID322	tömzsa	TRUE	NA	5.629599999427796	left	TRUE	58
ID322	időszak	FALSE	1.939	1.2343000001907285	right	TRUE	59
ID322	tropikus	FALSE	-0.563	2.547800000190705	right	TRUE	60
ID322	lejmol	FALSE	-2.031	1.2334000005722032	right	TRUE	61
ID322	közhely	FALSE	0.426	0.8003000001907026	right	TRUE	62
ID322	tortya	TRUE	NA	2.016699999809248	right	FALSE	63
ID322	arzénsav	FALSE	-2.408	1.49980000019076	right	TRUE	64
ID322	parkkói	TRUE	NA	4.696799999237101	left	TRUE	65
ID322	szalicil	FALSE	-0.79	1.4826999998093129	right	TRUE	66
ID322	csenyei	TRUE	NA	5.530300000190721	right	FALSE	67
ID322	lakotthely	FALSE	-2.472	1.316300000190722	right	TRUE	68
ID322	lemesség	TRUE	NA	11.027699999809272	left	TRUE	70
ID322	kettősfém	FALSE	-2.756	1.8003000001907026	right	TRUE	71
ID322	mihálóz	TRUE	NA	2.5325000000000273	right	FALSE	72
ID322	szelégül	TRUE	NA	3.2651999998092265	right	FALSE	73
ID322	kurzív	FALSE	-0.736	2.7874000005722337	right	TRUE	74
ID322	égitest	FALSE	0.434	1.239200000762935	right	TRUE	75
ID322	reform	FALSE	0.936	0.937799999237086	right	TRUE	76
ID322	gyapot	FALSE	-0.198	0.7994999999999663	right	TRUE	78
ID322	szimboló	TRUE	NA	12.757000000000003	right	FALSE	79
ID322	rakódik	FALSE	0.094	1.670200000762918	right	TRUE	82
ID322	bolgár	FALSE	1.03	0.850699999809251	right	TRUE	83
ID322	balközép	FALSE	-0.179	0.9000999994277663	right	TRUE	84
ID322	kárpit	FALSE	0.194	2.732899999618496	right	TRUE	85
ID322	hajlik	FALSE	0.575	0.8006999998092397	right	TRUE	86
ID322	ellenfél	FALSE	1.362	0.7691000003814565	right	TRUE	87
ID322	turné	FALSE	0.819	0.8691000003814793	right	TRUE	88
ID322	népszerű	FALSE	1.814	0.7371999998092633	right	TRUE	89
ID322	gazdag	FALSE	1.977	0.7828999996185075	right	TRUE	92
ID322	diktátor	FALSE	0.599	12.647899999618517	right	TRUE	93
ID322	változik	FALSE	1.765	0.7511999998092733	right	TRUE	95
ID322	gyülemlik	FALSE	-1.145	0.8504000005722219	right	TRUE	96
ID322	összalaj	TRUE	NA	4.946000000000026	left	TRUE	97
ID322	újgazdag	FALSE	-0.337	0.9334999999999808	right	TRUE	98
ID322	szempont	FALSE	1.61	0.618200000762954	right	TRUE	99
ID322	örmény	FALSE	0.795	0.9735000000000014	right	TRUE	101
ID322	viszkózus	FALSE	-0.482	1.6159999999999854	right	TRUE	103
ID322	selypít	FALSE	-1.452	1.2340000000000373	right	TRUE	104
ID322	bacon	FALSE	0.189	1.801899999618513	right	TRUE	107
ID322	irány	FALSE	1.373	1.2522999992370956	right	TRUE	108
ID322	színpad	FALSE	1.058	0.7843000001907399	right	TRUE	109
ID322	ború	FALSE	-0.485	0.8034000005721964	right	TRUE	110
ID322	takorák	TRUE	NA	3.5651999998092947	left	TRUE	111
ID322	úszamos	TRUE	NA	3.3521999998092724	right	FALSE	113
ID322	farkasbab	FALSE	-2.154	2.4495000000000005	right	TRUE	115
ID322	orális	FALSE	0.569	1.7032000007629904	right	TRUE	116
ID322	régész	FALSE	0.538	1.1830999994277818	right	TRUE	117
ID322	retta	TRUE	NA	3.8483999996184934	left	TRUE	118
ID322	komál	FALSE	-2.031	1.565600000381437	right	TRUE	119
ID322	kocskesi	TRUE	NA	4.048900000572189	right	FALSE	120
ID322	zomogyi	TRUE	NA	1.9836999998092892	right	FALSE	121
ID322	ingváll	FALSE	-1.276	1.1067999992370687	right	TRUE	122
ID322	vésségi	TRUE	NA	4.567099999427796	right	FALSE	123
ID322	puritán	FALSE	0.459	0.9514999999999532	right	TRUE	124
ID322	derít	FALSE	0.012	0.8236999998092642	right	TRUE	125
ID322	ernyak	TRUE	NA	9.80839999961853	left	TRUE	126
ID322	komoly	FALSE	2.29	1.0202999992370678	right	TRUE	127
ID322	hider	TRUE	NA	2.8999999999999773	left	TRUE	128
ID322	hálózsák	FALSE	-0.037	1.42369999980923	right	TRUE	129
ID322	tarol	FALSE	-0.219	0.8512000007629013	right	TRUE	130
ID322	barát	FALSE	1.221	0.7223999996184602	right	TRUE	131
ID322	storítő	TRUE	NA	4.097100000381488	left	TRUE	133
ID322	forgórész	FALSE	-0.244	1.424300000190783	right	TRUE	134
ID322	szilikát	FALSE	-0.363	0.9590999994278492	right	TRUE	135
ID322	grafikon	FALSE	0.471	0.8744999999998981	right	TRUE	136
ID322	látszik	FALSE	2.055	0.9412999992370032	right	TRUE	138
ID322	tajtásos	TRUE	NA	4.599500000000035	left	TRUE	140
ID322	tábornagy	FALSE	-0.321	1.1173000001907667	right	TRUE	141
ID322	piktogram	FALSE	-0.278	2.419399999618463	right	TRUE	143
ID322	svábtök	FALSE	-3.87	2.482600000381467	right	TRUE	144
ID322	konyrúd	TRUE	NA	2.4328000001908094	right	FALSE	145
ID322	kitin	FALSE	-0.946	1.5491999998092751	right	TRUE	146
ID322	mellényzseb	FALSE	-1.973	1.1496999998091724	right	TRUE	147
ID322	pohár	FALSE	1.388	0.7904000005721628	right	TRUE	148
ID322	biliárd	FALSE	-0.011	1.7413000001907903	right	TRUE	150
ID322	reagál	FALSE	1.189	0.98340000057226	right	TRUE	151
ID322	árus	FALSE	-0.422	0.7099999999999227	right	TRUE	152
ID322	hatalom	FALSE	1.658	0.8698000001907076	right	TRUE	153
ID322	karnogó	TRUE	NA	3.5986000003814524	left	TRUE	154
ID322	elegy	FALSE	-1.266	1.100700000762913	right	TRUE	155
ID322	dolgozik	FALSE	1.948	0.7208999996184957	right	TRUE	156
ID322	század	FALSE	2.036	0.6887999992370624	right	TRUE	157
ID322	kanalaz	FALSE	-1.325	0.916600000381436	right	TRUE	158
ID322	gyűjtemény	FALSE	1.112	0.8034000005721964	right	TRUE	159
ID322	nimbus	FALSE	-2.756	1.736399999618584	right	TRUE	160
ID322	heveny	FALSE	0.516	0.9586999998092552	right	TRUE	161
ID322	délceg	FALSE	-0.228	0.9540000000000646	right	TRUE	162
ID322	olaj	FALSE	1.54	0.8028000001907003	right	TRUE	163
ID322	csontdarab	FALSE	-1.165	1.176600000381427	right	TRUE	164
ID322	ion	FALSE	0.155	1.2000000000000457	right	TRUE	166
ID322	egant	TRUE	NA	1.0186999998093142	right	FALSE	167
ID322	megpadék	TRUE	NA	3.597699999809265	left	TRUE	168
ID322	töredék	FALSE	0.316	0.8563999996184748	right	TRUE	169
ID322	abszint	FALSE	-0.659	1.7029999999999743	right	TRUE	171
ID322	tröshet	TRUE	NA	3.0331000003815234	left	TRUE	172
ID322	csüggedez	FALSE	-2.756	1.9036999998091917	right	TRUE	173
ID322	pereg	FALSE	0.061	1.485899999618482	right	TRUE	174
ID322	pentez	TRUE	NA	1.701899999618604	left	TRUE	175
ID322	vetézmés	TRUE	NA	3.299199999809275	right	FALSE	176
ID322	novagár	TRUE	NA	4.650699999809262	left	TRUE	177
ID322	kötődik	FALSE	1.137	0.9008000001906566	right	TRUE	178
ID322	glükóz	FALSE	0.41	0.8694000005722273	right	TRUE	182
ID322	lublika	TRUE	NA	2.6202000007629067	right	FALSE	183
ID322	igény	FALSE	1.885	0.7093999996185403	right	TRUE	184
ID322	anorák	FALSE	-1.335	0.88339999961851845	right	TRUE	185
ID322	káder	FALSE	-0.593	0.9505999994278228	right	TRUE	186
ID322	rejtőzik	FALSE	0.612	0.8676000003814579	right	TRUE	188
ID322	nyersarany	FALSE	-2.548	1.770600000381478	right	TRUE	189
ID322	templomoz	FALSE	-3.092	1.5992999992371324	right	TRUE	190
ID322	dohorpák	TRUE	NA	4.373000000000047	left	TRUE	191
ID322	iszlám	FALSE	1.246	0.916499999999928	right	TRUE	192
ID322	hidroxid	FALSE	-0.536	2.665499999999952	right	TRUE	193
ID322	karakter	FALSE	1.43	0.8538000001907449	right	TRUE	194
ID322	mítosz	FALSE	0.619	0.78449999999998	right	TRUE	195
ID322	végbél	FALSE	0.305	0.8870999994278463	right	TRUE	196
ID322	komplex	FALSE	1.745	1.0670000000000073	right	TRUE	197
ID322	luftballon	FALSE	-1.821	1.350800000190702	right	TRUE	198
ID322	sárgaréz	FALSE	-0.031	1.119400000572227	right	TRUE	199
ID322	csüggeszt	FALSE	-1.753	1.3697000007629183	right	TRUE	200
ID322	szegény	FALSE	1.681	0.7709999999999582	right	TRUE	201
ID322	referál	FALSE	-0.432	1.0678999996185894	right	TRUE	202
ID322	nagybeteg	FALSE	-0.276	1.2699999999999818	right	TRUE	203
ID322	rojtoz	TRUE	NA	0.5693999996185539	right	FALSE	204
